,rt,old or new,accuracy,test item,condition,trials,block,node type,participant,resp_old,response,node_type,participant_id
0,3.5546374917030334,old,1.0,stimuli/177.png,unstructured,0,0,nonboundary,24067.0,1,1,nonboundary,24067.0
1,1.4716942002996802,new,1.0,stimuli/299.png,unstructured,1,0,new,24067.0,0,-1,new,24067.0
2,1.3599063055589795,old,1.0,stimuli/5.png,unstructured,2,0,boundary,24067.0,1,1,boundary,24067.0
3,2.3934800131246448,new,0.0,stimuli/273.png,unstructured,3,0,new,24067.0,1,1,new,24067.0
4,1.2697484670206904,new,0.0,stimuli/271.png,unstructured,4,0,new,24067.0,1,1,new,24067.0
5,1.6519555430859327,new,1.0,stimuli/219.png,unstructured,5,0,new,24067.0,0,-1,new,24067.0
6,1.1838835580274463,old,1.0,stimuli/57.png,unstructured,6,0,boundary,24067.0,1,1,boundary,24067.0
7,1.4633718593977392,new,1.0,stimuli/123.png,unstructured,7,0,new,24067.0,0,-1,new,24067.0
8,1.4143005046062171,old,1.0,stimuli/209.png,unstructured,8,0,boundary,24067.0,1,1,boundary,24067.0
9,1.1124737011268735,old,1.0,stimuli/9.png,unstructured,9,0,nonboundary,24067.0,1,1,nonboundary,24067.0
10,2.197348538786173,new,1.0,stimuli/77.png,unstructured,10,0,new,24067.0,0,-1,new,24067.0
11,1.2809272264130414,old,1.0,stimuli/52.png,unstructured,11,0,boundary,24067.0,1,1,boundary,24067.0
12,1.5441602347418666,old,1.0,stimuli/148.png,unstructured,12,0,nonboundary,24067.0,1,1,nonboundary,24067.0
13,1.1596349412575364,old,1.0,stimuli/278.png,unstructured,13,0,nonboundary,24067.0,1,1,nonboundary,24067.0
14,2.8979368465952575,new,1.0,stimuli/193.png,unstructured,14,0,new,24067.0,0,-1,new,24067.0
15,1.0688924170099199,old,1.0,stimuli/170.png,unstructured,15,0,boundary,24067.0,1,1,boundary,24067.0
16,1.4051239253021777,new,1.0,stimuli/269.png,unstructured,16,0,new,24067.0,0,-1,new,24067.0
17,1.1309805032797158,old,1.0,stimuli/136.png,unstructured,17,0,boundary,24067.0,1,1,boundary,24067.0
18,1.209537895862013,new,0.0,stimuli/153.png,unstructured,18,0,new,24067.0,1,1,new,24067.0
19,0.802057116292417,old,1.0,stimuli/265.png,unstructured,19,0,nonboundary,24067.0,1,1,nonboundary,24067.0
20,0.7318640220910311,old,1.0,stimuli/207.png,unstructured,20,0,nonboundary,24067.0,1,1,nonboundary,24067.0
21,1.134691764600575,new,1.0,stimuli/201.png,unstructured,21,0,new,24067.0,0,-1,new,24067.0
22,1.6098829116672277,new,1.0,stimuli/221.png,unstructured,22,0,new,24067.0,0,-1,new,24067.0
23,1.6087980587035418,old,1.0,stimuli/101.png,unstructured,23,0,nonboundary,24067.0,1,1,nonboundary,24067.0
24,1.2006456600502133,old,1.0,stimuli/67.png,unstructured,24,0,nonboundary,24067.0,1,1,nonboundary,24067.0
25,1.0288968244567513,new,1.0,stimuli/254.png,unstructured,25,0,new,24067.0,0,-1,new,24067.0
26,0.8584239138290286,new,1.0,stimuli/95.png,unstructured,26,0,new,24067.0,0,-1,new,24067.0
27,1.9812991074286401,new,1.0,stimuli/64.png,unstructured,27,0,new,24067.0,0,-1,new,24067.0
28,0.9035213966853917,old,1.0,stimuli/154.png,unstructured,28,0,nonboundary,24067.0,1,1,nonboundary,24067.0
29,1.862079030368477,new,1.0,stimuli/166.png,unstructured,29,0,new,24067.0,0,-1,new,24067.0
30,4.090402941219509,old,0.0,stimuli/9.png,unstructured,30,1,nonboundary,24067.0,0,-1,nonboundary,24067.0
31,1.195046016946435,old,1.0,stimuli/278.png,unstructured,31,1,nonboundary,24067.0,1,1,nonboundary,24067.0
32,0.9392666220664978,old,1.0,stimuli/67.png,unstructured,32,1,nonboundary,24067.0,1,1,nonboundary,24067.0
33,1.144491667393595,new,1.0,stimuli/14.png,unstructured,33,1,new,24067.0,0,-1,new,24067.0
34,2.424991170875728,new,1.0,stimuli/23.png,unstructured,34,1,new,24067.0,0,-1,new,24067.0
35,1.3079558932222426,old,1.0,stimuli/265.png,unstructured,35,1,nonboundary,24067.0,1,1,nonboundary,24067.0
36,1.2324994187802076,new,1.0,stimuli/129.png,unstructured,36,1,new,24067.0,0,-1,new,24067.0
37,1.7707101656123996,old,1.0,stimuli/170.png,unstructured,37,1,boundary,24067.0,1,1,boundary,24067.0
38,1.014924431219697,old,1.0,stimuli/148.png,unstructured,38,1,nonboundary,24067.0,1,1,nonboundary,24067.0
39,1.3324619894847274,new,1.0,stimuli/293.png,unstructured,39,1,new,24067.0,0,-1,new,24067.0
40,2.6847172710113227,new,1.0,stimuli/124.png,unstructured,40,1,new,24067.0,0,-1,new,24067.0
41,0.9259815444238484,new,1.0,stimuli/91.png,unstructured,41,1,new,24067.0,0,-1,new,24067.0
42,1.7535321121104062,new,1.0,stimuli/117.png,unstructured,42,1,new,24067.0,0,-1,new,24067.0
43,1.172402343712747,old,1.0,stimuli/101.png,unstructured,43,1,nonboundary,24067.0,1,1,nonboundary,24067.0
44,1.1392811108380556,new,0.0,stimuli/138.png,unstructured,44,1,new,24067.0,1,1,new,24067.0
45,1.3002112959511578,new,1.0,stimuli/132.png,unstructured,45,1,new,24067.0,0,-1,new,24067.0
46,0.8910642969422042,old,1.0,stimuli/207.png,unstructured,46,1,nonboundary,24067.0,1,1,nonboundary,24067.0
47,2.795617119874805,old,0.0,stimuli/57.png,unstructured,47,1,boundary,24067.0,0,-1,boundary,24067.0
48,1.6055709668435156,new,1.0,stimuli/204.png,unstructured,48,1,new,24067.0,0,-1,new,24067.0
49,1.026774507947266,old,1.0,stimuli/52.png,unstructured,49,1,boundary,24067.0,1,1,boundary,24067.0
50,0.9222621340304613,old,1.0,stimuli/136.png,unstructured,50,1,boundary,24067.0,1,1,boundary,24067.0
51,0.9631318878382444,new,1.0,stimuli/290.png,unstructured,51,1,new,24067.0,0,-1,new,24067.0
52,1.1956473048776388,new,1.0,stimuli/297.png,unstructured,52,1,new,24067.0,0,-1,new,24067.0
53,1.1204960020259023,new,1.0,stimuli/94.png,unstructured,53,1,new,24067.0,0,-1,new,24067.0
54,1.0427267435006797,old,1.0,stimuli/209.png,unstructured,54,1,boundary,24067.0,1,1,boundary,24067.0
55,1.20726133370772,old,1.0,stimuli/5.png,unstructured,55,1,boundary,24067.0,1,1,boundary,24067.0
56,1.1177482497878373,new,1.0,stimuli/71.png,unstructured,56,1,new,24067.0,0,-1,new,24067.0
57,1.2666119309142232,old,1.0,stimuli/154.png,unstructured,57,1,nonboundary,24067.0,1,1,nonboundary,24067.0
58,1.125482282601297,new,0.0,stimuli/45.png,unstructured,58,1,new,24067.0,1,1,new,24067.0
59,1.1370099820196629,old,0.0,stimuli/177.png,unstructured,59,1,nonboundary,24067.0,0,-1,nonboundary,24067.0
60,2.507838473189622,new,1.0,stimuli/216.png,unstructured,60,2,new,24067.0,0,-1,new,24067.0
61,0.9977632821537554,old,1.0,stimuli/5.png,unstructured,61,2,boundary,24067.0,1,1,boundary,24067.0
62,1.429628511890769,old,1.0,stimuli/170.png,unstructured,62,2,boundary,24067.0,1,1,boundary,24067.0
63,1.1441665734164417,old,1.0,stimuli/9.png,unstructured,63,2,nonboundary,24067.0,1,1,nonboundary,24067.0
64,0.8973630270920694,new,1.0,stimuli/284.png,unstructured,64,2,new,24067.0,0,-1,new,24067.0
65,1.07487873127684,old,1.0,stimuli/278.png,unstructured,65,2,nonboundary,24067.0,1,1,nonboundary,24067.0
66,1.4010468199849129,old,1.0,stimuli/209.png,unstructured,66,2,boundary,24067.0,1,1,boundary,24067.0
67,1.6866189339198172,new,1.0,stimuli/150.png,unstructured,67,2,new,24067.0,0,-1,new,24067.0
68,1.8942092852666974,new,1.0,stimuli/178.png,unstructured,68,2,new,24067.0,0,-1,new,24067.0
69,3.899153608828783,new,0.0,stimuli/114.png,unstructured,69,2,new,24067.0,1,1,new,24067.0
70,0.9374844920821488,new,1.0,stimuli/141.png,unstructured,70,2,new,24067.0,0,-1,new,24067.0
71,3.3887183093465865,new,1.0,stimuli/53.png,unstructured,71,2,new,24067.0,0,-1,new,24067.0
72,1.1470223884098232,old,1.0,stimuli/136.png,unstructured,72,2,boundary,24067.0,1,1,boundary,24067.0
73,0.9399101692251861,old,1.0,stimuli/177.png,unstructured,73,2,nonboundary,24067.0,1,1,nonboundary,24067.0
74,1.5647208327427506,new,1.0,stimuli/298.png,unstructured,74,2,new,24067.0,0,-1,new,24067.0
75,1.3103522905148566,old,1.0,stimuli/57.png,unstructured,75,2,boundary,24067.0,1,1,boundary,24067.0
76,0.9885036931373179,old,1.0,stimuli/265.png,unstructured,76,2,nonboundary,24067.0,1,1,nonboundary,24067.0
77,3.0403418159112334,new,1.0,stimuli/93.png,unstructured,77,2,new,24067.0,0,-1,new,24067.0
78,1.0940668117254972,old,1.0,stimuli/101.png,unstructured,78,2,nonboundary,24067.0,1,1,nonboundary,24067.0
79,3.8982987659983337,new,1.0,stimuli/176.png,unstructured,79,2,new,24067.0,0,-1,new,24067.0
80,1.040640648920089,new,1.0,stimuli/277.png,unstructured,80,2,new,24067.0,0,-1,new,24067.0
81,0.7468916866928339,new,1.0,stimuli/131.png,unstructured,81,2,new,24067.0,0,-1,new,24067.0
82,0.7536504380404949,new,1.0,stimuli/39.png,unstructured,82,2,new,24067.0,0,-1,new,24067.0
83,0.9531551003456116,old,1.0,stimuli/148.png,unstructured,83,2,nonboundary,24067.0,1,1,nonboundary,24067.0
84,1.2443458731286228,new,1.0,stimuli/130.png,unstructured,84,2,new,24067.0,0,-1,new,24067.0
85,0.8305295375175774,old,1.0,stimuli/52.png,unstructured,85,2,boundary,24067.0,1,1,boundary,24067.0
86,1.4607430370524526,old,1.0,stimuli/154.png,unstructured,86,2,nonboundary,24067.0,1,1,nonboundary,24067.0
87,1.5936031686142087,old,1.0,stimuli/207.png,unstructured,87,2,nonboundary,24067.0,1,1,nonboundary,24067.0
88,1.0492153372615576,new,1.0,stimuli/223.png,unstructured,88,2,new,24067.0,0,-1,new,24067.0
89,0.7689893115311861,old,1.0,stimuli/67.png,unstructured,89,2,nonboundary,24067.0,1,1,nonboundary,24067.0
90,5.888846026267856,new,0.0,stimuli/274.png,structured,0,0,new,24068.0,1,1,new,24068.0
91,2.697662773076445,new,0.0,stimuli/219.png,structured,1,0,new,24068.0,1,1,new,24068.0
92,0.9750185641460121,old,1.0,stimuli/247.png,structured,2,0,nonboundary,24068.0,1,1,nonboundary,24068.0
93,0.7368755470961332,old,1.0,stimuli/294.png,structured,3,0,nonboundary,24068.0,1,1,nonboundary,24068.0
94,0.9877539318986237,new,1.0,stimuli/256.png,structured,4,0,new,24068.0,0,-1,new,24068.0
95,1.018617223482579,new,0.0,stimuli/163.png,structured,5,0,new,24068.0,1,1,new,24068.0
96,0.9064816320315003,new,1.0,stimuli/137.png,structured,6,0,new,24068.0,0,-1,new,24068.0
97,1.0016586678102612,new,1.0,stimuli/234.png,structured,7,0,new,24068.0,0,-1,new,24068.0
98,0.9471915843896568,new,1.0,stimuli/45.png,structured,8,0,new,24068.0,0,-1,new,24068.0
99,0.7540013282559812,old,1.0,stimuli/283.png,structured,9,0,boundary,24068.0,1,1,boundary,24068.0
100,0.5946128768846393,old,1.0,stimuli/32.png,structured,10,0,nonboundary,24068.0,1,1,nonboundary,24068.0
101,0.6174819646403193,old,0.0,stimuli/192.png,structured,11,0,boundary,24068.0,0,-1,boundary,24068.0
102,1.5090123456902802,old,0.0,stimuli/68.png,structured,12,0,nonboundary,24068.0,0,-1,nonboundary,24068.0
103,0.5308041293174028,new,1.0,stimuli/56.png,structured,13,0,new,24068.0,0,-1,new,24068.0
104,0.7090576235204935,old,1.0,stimuli/19.png,structured,14,0,nonboundary,24068.0,1,1,nonboundary,24068.0
105,0.8786462009884417,old,1.0,stimuli/95.png,structured,15,0,nonboundary,24068.0,1,1,nonboundary,24068.0
106,0.523128679022193,new,0.0,stimuli/11.png,structured,16,0,new,24068.0,1,1,new,24068.0
107,0.9766953424550593,new,1.0,stimuli/243.png,structured,17,0,new,24068.0,0,-1,new,24068.0
108,1.0648757885210216,old,1.0,stimuli/69.png,structured,18,0,nonboundary,24068.0,1,1,nonboundary,24068.0
109,0.6807461739517748,old,1.0,stimuli/23.png,structured,19,0,nonboundary,24068.0,1,1,nonboundary,24068.0
110,0.5249400823377073,new,0.0,stimuli/35.png,structured,20,0,new,24068.0,1,1,new,24068.0
111,5.832650245632976,new,0.0,stimuli/15.png,structured,21,0,new,24068.0,1,1,new,24068.0
112,4.2704838663339615,old,1.0,stimuli/295.png,structured,22,0,boundary,24068.0,1,1,boundary,24068.0
113,0.8660545144230127,old,1.0,stimuli/297.png,structured,23,0,boundary,24068.0,1,1,boundary,24068.0
114,0.7375879138708115,new,0.0,stimuli/202.png,structured,24,0,new,24068.0,1,1,new,24068.0
115,0.895469528157264,old,1.0,stimuli/272.png,structured,25,0,nonboundary,24068.0,1,1,nonboundary,24068.0
116,1.0929922424256802,old,1.0,stimuli/135.png,structured,26,0,boundary,24068.0,1,1,boundary,24068.0
117,0.8231685226783156,new,0.0,stimuli/21.png,structured,27,0,new,24068.0,1,1,new,24068.0
118,0.696688701864332,old,0.0,stimuli/67.png,structured,28,0,boundary,24068.0,0,-1,boundary,24068.0
119,4.157678469084203,new,0.0,stimuli/120.png,structured,29,0,new,24068.0,1,1,new,24068.0
120,3.9366452349349856,old,1.0,stimuli/19.png,structured,30,1,nonboundary,24068.0,1,1,nonboundary,24068.0
121,1.1531827100552619,new,1.0,stimuli/81.png,structured,31,1,new,24068.0,0,-1,new,24068.0
122,0.9513568175025284,new,0.0,stimuli/221.png,structured,32,1,new,24068.0,1,1,new,24068.0
123,0.6848531495779753,old,1.0,stimuli/295.png,structured,33,1,boundary,24068.0,1,1,boundary,24068.0
124,0.8510637204162776,new,1.0,stimuli/52.png,structured,34,1,new,24068.0,0,-1,new,24068.0
125,0.37329047033563256,old,1.0,stimuli/135.png,structured,35,1,boundary,24068.0,1,1,boundary,24068.0
126,1.3121564192697406,new,0.0,stimuli/200.png,structured,36,1,new,24068.0,1,1,new,24068.0
127,0.3713242174126208,old,0.0,stimuli/23.png,structured,37,1,nonboundary,24068.0,0,-1,nonboundary,24068.0
128,0.7045811824500561,old,1.0,stimuli/32.png,structured,38,1,nonboundary,24068.0,1,1,nonboundary,24068.0
129,0.6567623531445861,new,0.0,stimuli/275.png,structured,39,1,new,24068.0,1,1,new,24068.0
130,0.7500015092082322,old,0.0,stimuli/68.png,structured,40,1,nonboundary,24068.0,0,-1,nonboundary,24068.0
131,1.281556943897158,old,0.0,stimuli/192.png,structured,41,1,boundary,24068.0,0,-1,boundary,24068.0
132,0.5047299945726991,new,0.0,stimuli/54.png,structured,42,1,new,24068.0,1,1,new,24068.0
133,0.19861812936142087,old,1.0,stimuli/297.png,structured,43,1,boundary,24068.0,1,1,boundary,24068.0
134,0.020171149168163538,new,0.0,stimuli/258.png,structured,44,1,new,24068.0,1,1,new,24068.0
135,0.277111291885376,old,0.0,stimuli/95.png,structured,45,1,nonboundary,24068.0,0,-1,nonboundary,24068.0
136,0.3826508494094014,old,1.0,stimuli/272.png,structured,46,1,nonboundary,24068.0,1,1,nonboundary,24068.0
137,0.4719282197766006,old,0.0,stimuli/247.png,structured,47,1,nonboundary,24068.0,0,-1,nonboundary,24068.0
138,0.3344857976771891,old,1.0,stimuli/69.png,structured,48,1,nonboundary,24068.0,1,1,nonboundary,24068.0
139,0.3396942256949842,new,0.0,stimuli/74.png,structured,49,1,new,24068.0,1,1,new,24068.0
140,0.4525971203111112,new,0.0,stimuli/195.png,structured,50,1,new,24068.0,1,1,new,24068.0
141,0.2694832324050367,old,1.0,stimuli/67.png,structured,51,1,boundary,24068.0,1,1,boundary,24068.0
142,0.26205137465149164,new,1.0,stimuli/245.png,structured,52,1,new,24068.0,0,-1,new,24068.0
143,0.3233185429126024,new,0.0,stimuli/160.png,structured,53,1,new,24068.0,1,1,new,24068.0
144,0.04921488743275404,new,0.0,stimuli/216.png,structured,54,1,new,24068.0,1,1,new,24068.0
145,0.29610069701448083,new,1.0,stimuli/142.png,structured,55,1,new,24068.0,0,-1,new,24068.0
146,0.3263814183883369,new,0.0,stimuli/265.png,structured,56,1,new,24068.0,1,1,new,24068.0
147,0.0573053820990026,new,0.0,stimuli/257.png,structured,57,1,new,24068.0,1,1,new,24068.0
148,0.2701980136334896,old,1.0,stimuli/294.png,structured,58,1,nonboundary,24068.0,1,1,nonboundary,24068.0
149,0.34974735137075186,old,1.0,stimuli/283.png,structured,59,1,boundary,24068.0,1,1,boundary,24068.0
150,4.297651000786573,old,1.0,stimuli/294.png,structured,60,2,nonboundary,24068.0,1,1,nonboundary,24068.0
151,0.9175610495731235,new,0.0,stimuli/173.png,structured,61,2,new,24068.0,1,1,new,24068.0
152,0.6154127800837159,old,1.0,stimuli/283.png,structured,62,2,boundary,24068.0,1,1,boundary,24068.0
153,0.9613039935939014,new,1.0,stimuli/218.png,structured,63,2,new,24068.0,0,-1,new,24068.0
154,0.909833378624171,old,1.0,stimuli/68.png,structured,64,2,nonboundary,24068.0,1,1,nonboundary,24068.0
155,0.9749980377964675,new,1.0,stimuli/79.png,structured,65,2,new,24068.0,0,-1,new,24068.0
156,0.6958881942555308,old,1.0,stimuli/69.png,structured,66,2,nonboundary,24068.0,1,1,nonboundary,24068.0
157,0.6147985151037574,new,0.0,stimuli/276.png,structured,67,2,new,24068.0,1,1,new,24068.0
158,0.516343988943845,new,0.0,stimuli/59.png,structured,68,2,new,24068.0,1,1,new,24068.0
159,0.6898617525584996,old,1.0,stimuli/297.png,structured,69,2,boundary,24068.0,1,1,boundary,24068.0
160,0.5041054664179683,new,0.0,stimuli/199.png,structured,70,2,new,24068.0,1,1,new,24068.0
161,0.6636330704204738,new,0.0,stimuli/288.png,structured,71,2,new,24068.0,1,1,new,24068.0
162,2.4752235203050077,old,1.0,stimuli/247.png,structured,72,2,nonboundary,24068.0,1,1,nonboundary,24068.0
163,0.9069498023018241,old,1.0,stimuli/295.png,structured,73,2,boundary,24068.0,1,1,boundary,24068.0
164,0.7088393853046,new,1.0,stimuli/285.png,structured,74,2,new,24068.0,0,-1,new,24068.0
165,0.8163684383034706,old,1.0,stimuli/32.png,structured,75,2,nonboundary,24068.0,1,1,nonboundary,24068.0
166,0.7302378579042852,new,0.0,stimuli/233.png,structured,76,2,new,24068.0,1,1,new,24068.0
167,0.7194636119529605,new,1.0,stimuli/140.png,structured,77,2,new,24068.0,0,-1,new,24068.0
168,0.47540613962337375,new,0.0,stimuli/186.png,structured,78,2,new,24068.0,1,1,new,24068.0
169,0.3955646110698581,old,1.0,stimuli/67.png,structured,79,2,boundary,24068.0,1,1,boundary,24068.0
170,1.1127881915308535,new,1.0,stimuli/266.png,structured,80,2,new,24068.0,0,-1,new,24068.0
171,0.8411198649555445,old,1.0,stimuli/19.png,structured,81,2,nonboundary,24068.0,1,1,nonboundary,24068.0
172,1.8182130460627377,old,1.0,stimuli/192.png,structured,82,2,boundary,24068.0,1,1,boundary,24068.0
173,0.6626502461731434,old,1.0,stimuli/272.png,structured,83,2,nonboundary,24068.0,1,1,nonboundary,24068.0
174,1.8392145852558315,new,1.0,stimuli/242.png,structured,84,2,new,24068.0,0,-1,new,24068.0
175,2.892740197479725,old,1.0,stimuli/135.png,structured,85,2,boundary,24068.0,1,1,boundary,24068.0
176,1.0894132028333843,new,0.0,stimuli/49.png,structured,86,2,new,24068.0,1,1,new,24068.0
177,1.011279845610261,old,0.0,stimuli/95.png,structured,87,2,nonboundary,24068.0,0,-1,nonboundary,24068.0
178,29.027122159022838,new,0.0,stimuli/150.png,structured,88,2,new,24068.0,1,1,new,24068.0
179,4.252614024095237,old,1.0,stimuli/23.png,structured,89,2,nonboundary,24068.0,1,1,nonboundary,24068.0
180,2.8452511252835393,new,1.0,stimuli/34.png,unstructured,0,0,new,24069.0,0,-1,new,24069.0
181,1.818533365149051,old,1.0,stimuli/252.png,unstructured,1,0,boundary,24069.0,1,1,boundary,24069.0
182,1.2487513925880194,old,1.0,stimuli/246.png,unstructured,2,0,nonboundary,24069.0,1,1,nonboundary,24069.0
183,3.1163844857364893,new,1.0,stimuli/7.png,unstructured,3,0,new,24069.0,0,-1,new,24069.0
184,1.024662152864039,old,1.0,stimuli/183.png,unstructured,4,0,nonboundary,24069.0,1,1,nonboundary,24069.0
185,1.084185711108148,new,0.0,stimuli/30.png,unstructured,5,0,new,24069.0,1,1,new,24069.0
186,0.8420294667594135,new,1.0,stimuli/98.png,unstructured,6,0,new,24069.0,0,-1,new,24069.0
187,5.252297842409462,new,1.0,stimuli/11.png,unstructured,7,0,new,24069.0,0,-1,new,24069.0
188,1.1147031746804714,new,1.0,stimuli/259.png,unstructured,8,0,new,24069.0,0,-1,new,24069.0
189,0.766592612490058,old,1.0,stimuli/221.png,unstructured,9,0,boundary,24069.0,1,1,boundary,24069.0
190,0.8617581627331674,new,0.0,stimuli/202.png,unstructured,10,0,new,24069.0,1,1,new,24069.0
191,1.120555164758116,new,1.0,stimuli/160.png,unstructured,11,0,new,24069.0,0,-1,new,24069.0
192,0.8057686793617904,new,0.0,stimuli/133.png,unstructured,12,0,new,24069.0,1,1,new,24069.0
193,0.8279016204178333,old,1.0,stimuli/27.png,unstructured,13,0,nonboundary,24069.0,1,1,nonboundary,24069.0
194,0.6437759781256318,old,1.0,stimuli/143.png,unstructured,14,0,nonboundary,24069.0,1,1,nonboundary,24069.0
195,0.8646245426498353,old,1.0,stimuli/112.png,unstructured,15,0,nonboundary,24069.0,1,1,nonboundary,24069.0
196,0.6381518854759634,old,1.0,stimuli/227.png,unstructured,16,0,nonboundary,24069.0,1,1,nonboundary,24069.0
197,0.7252655536867678,old,1.0,stimuli/253.png,unstructured,17,0,nonboundary,24069.0,1,1,nonboundary,24069.0
198,2.157789120450616,new,0.0,stimuli/47.png,unstructured,18,0,new,24069.0,1,1,new,24069.0
199,2.29340605949983,new,0.0,stimuli/197.png,unstructured,19,0,new,24069.0,1,1,new,24069.0
200,1.0295796119607985,new,1.0,stimuli/74.png,unstructured,20,0,new,24069.0,0,-1,new,24069.0
201,0.8562261345796287,new,1.0,stimuli/105.png,unstructured,21,0,new,24069.0,0,-1,new,24069.0
202,0.8209997918456793,old,1.0,stimuli/257.png,unstructured,22,0,boundary,24069.0,1,1,boundary,24069.0
203,0.8418574114330113,old,1.0,stimuli/119.png,unstructured,23,0,boundary,24069.0,1,1,boundary,24069.0
204,0.8636872945353389,old,1.0,stimuli/291.png,unstructured,24,0,nonboundary,24069.0,1,1,nonboundary,24069.0
205,1.4778700773604214,new,0.0,stimuli/90.png,unstructured,25,0,new,24069.0,1,1,new,24069.0
206,0.7743827900849283,old,1.0,stimuli/243.png,unstructured,26,0,boundary,24069.0,1,1,boundary,24069.0
207,0.5608963775448501,old,1.0,stimuli/219.png,unstructured,27,0,boundary,24069.0,1,1,boundary,24069.0
208,0.6283948454074562,old,1.0,stimuli/153.png,unstructured,28,0,nonboundary,24069.0,1,1,nonboundary,24069.0
209,0.9831929220817983,new,0.0,stimuli/13.png,unstructured,29,0,new,24069.0,1,1,new,24069.0
210,1.580853876657784,old,1.0,stimuli/112.png,unstructured,30,1,nonboundary,24069.0,1,1,nonboundary,24069.0
211,1.287376882508397,new,1.0,stimuli/244.png,unstructured,31,1,new,24069.0,0,-1,new,24069.0
212,1.0402594110928476,new,1.0,stimuli/85.png,unstructured,32,1,new,24069.0,0,-1,new,24069.0
213,0.8297740039415658,new,1.0,stimuli/87.png,unstructured,33,1,new,24069.0,0,-1,new,24069.0
214,0.8605996575206518,old,1.0,stimuli/243.png,unstructured,34,1,boundary,24069.0,1,1,boundary,24069.0
215,0.6661247429437935,old,1.0,stimuli/143.png,unstructured,35,1,nonboundary,24069.0,1,1,nonboundary,24069.0
216,0.5875715762376785,old,1.0,stimuli/153.png,unstructured,36,1,nonboundary,24069.0,1,1,nonboundary,24069.0
217,0.7097494937479496,new,1.0,stimuli/39.png,unstructured,37,1,new,24069.0,0,-1,new,24069.0
218,0.686912031378597,old,1.0,stimuli/252.png,unstructured,38,1,boundary,24069.0,1,1,boundary,24069.0
219,0.8493970520794392,new,0.0,stimuli/208.png,unstructured,39,1,new,24069.0,1,1,new,24069.0
220,0.595875202678144,new,1.0,stimuli/138.png,unstructured,40,1,new,24069.0,0,-1,new,24069.0
221,0.7088004732504487,old,1.0,stimuli/227.png,unstructured,41,1,nonboundary,24069.0,1,1,nonboundary,24069.0
222,0.6525474735535681,old,1.0,stimuli/246.png,unstructured,42,1,nonboundary,24069.0,1,1,nonboundary,24069.0
223,1.6177319497801363,old,1.0,stimuli/27.png,unstructured,43,1,nonboundary,24069.0,1,1,nonboundary,24069.0
224,0.8889314159750938,new,1.0,stimuli/164.png,unstructured,44,1,new,24069.0,0,-1,new,24069.0
225,1.0211332100443542,old,1.0,stimuli/221.png,unstructured,45,1,boundary,24069.0,1,1,boundary,24069.0
226,0.8113103667274117,old,1.0,stimuli/253.png,unstructured,46,1,nonboundary,24069.0,1,1,nonboundary,24069.0
227,1.0538345677778125,new,1.0,stimuli/89.png,unstructured,47,1,new,24069.0,0,-1,new,24069.0
228,0.6983844921924174,old,1.0,stimuli/219.png,unstructured,48,1,boundary,24069.0,1,1,boundary,24069.0
229,0.7905028536915779,new,1.0,stimuli/96.png,unstructured,49,1,new,24069.0,0,-1,new,24069.0
230,1.7943270076066256,new,1.0,stimuli/198.png,unstructured,50,1,new,24069.0,0,-1,new,24069.0
231,0.757876053918153,new,1.0,stimuli/154.png,unstructured,51,1,new,24069.0,0,-1,new,24069.0
232,0.9654162982478738,old,1.0,stimuli/257.png,unstructured,52,1,boundary,24069.0,1,1,boundary,24069.0
233,1.782291594427079,new,1.0,stimuli/238.png,unstructured,53,1,new,24069.0,0,-1,new,24069.0
234,0.8645095373503864,new,1.0,stimuli/140.png,unstructured,54,1,new,24069.0,0,-1,new,24069.0
235,0.624287857208401,old,1.0,stimuli/119.png,unstructured,55,1,boundary,24069.0,1,1,boundary,24069.0
236,0.7454935116693377,old,1.0,stimuli/183.png,unstructured,56,1,nonboundary,24069.0,1,1,nonboundary,24069.0
237,0.7473019026219845,new,1.0,stimuli/279.png,unstructured,57,1,new,24069.0,0,-1,new,24069.0
238,1.4128217357210815,new,1.0,stimuli/38.png,unstructured,58,1,new,24069.0,0,-1,new,24069.0
239,0.7010009386576712,old,1.0,stimuli/291.png,unstructured,59,1,nonboundary,24069.0,1,1,nonboundary,24069.0
240,1.7610910716466606,old,1.0,stimuli/291.png,unstructured,60,2,nonboundary,24069.0,1,1,nonboundary,24069.0
241,0.8843139978125691,old,1.0,stimuli/257.png,unstructured,61,2,boundary,24069.0,1,1,boundary,24069.0
242,0.8971752761863172,new,1.0,stimuli/43.png,unstructured,62,2,new,24069.0,0,-1,new,24069.0
243,2.168711306527257,new,1.0,stimuli/94.png,unstructured,63,2,new,24069.0,0,-1,new,24069.0
244,0.9529389748349786,old,1.0,stimuli/253.png,unstructured,64,2,nonboundary,24069.0,1,1,nonboundary,24069.0
245,0.7598018646240234,new,1.0,stimuli/108.png,unstructured,65,2,new,24069.0,0,-1,new,24069.0
246,0.8399862353689969,new,1.0,stimuli/111.png,unstructured,66,2,new,24069.0,0,-1,new,24069.0
247,0.7731282962486148,new,1.0,stimuli/191.png,unstructured,67,2,new,24069.0,0,-1,new,24069.0
248,0.6799658304080367,new,1.0,stimuli/51.png,unstructured,68,2,new,24069.0,0,-1,new,24069.0
249,1.372491389978677,new,1.0,stimuli/292.png,unstructured,69,2,new,24069.0,0,-1,new,24069.0
250,0.7843149034306407,old,1.0,stimuli/112.png,unstructured,70,2,nonboundary,24069.0,1,1,nonboundary,24069.0
251,0.45685338182374835,old,1.0,stimuli/243.png,unstructured,71,2,boundary,24069.0,1,1,boundary,24069.0
252,0.6463380916975439,old,1.0,stimuli/119.png,unstructured,72,2,boundary,24069.0,1,1,boundary,24069.0
253,0.7081614541821182,old,1.0,stimuli/221.png,unstructured,73,2,boundary,24069.0,1,1,boundary,24069.0
254,0.5679168342612684,old,1.0,stimuli/143.png,unstructured,74,2,nonboundary,24069.0,1,1,nonboundary,24069.0
255,0.745760649908334,old,1.0,stimuli/252.png,unstructured,75,2,boundary,24069.0,1,1,boundary,24069.0
256,0.9489077511243522,new,1.0,stimuli/273.png,unstructured,76,2,new,24069.0,0,-1,new,24069.0
257,0.5557386451400816,old,1.0,stimuli/246.png,unstructured,77,2,nonboundary,24069.0,1,1,nonboundary,24069.0
258,1.1042642528191209,new,1.0,stimuli/144.png,unstructured,78,2,new,24069.0,0,-1,new,24069.0
259,0.7754501360468566,new,1.0,stimuli/8.png,unstructured,79,2,new,24069.0,0,-1,new,24069.0
260,0.632342154160142,new,1.0,stimuli/76.png,unstructured,80,2,new,24069.0,0,-1,new,24069.0
261,0.7744132769294083,old,1.0,stimuli/27.png,unstructured,81,2,nonboundary,24069.0,1,1,nonboundary,24069.0
262,0.7035796539857984,old,1.0,stimuli/183.png,unstructured,82,2,nonboundary,24069.0,1,1,nonboundary,24069.0
263,2.209090552292764,new,0.0,stimuli/37.png,unstructured,83,2,new,24069.0,1,1,new,24069.0
264,0.5993603770621121,old,1.0,stimuli/219.png,unstructured,84,2,boundary,24069.0,1,1,boundary,24069.0
265,0.7611466124653816,new,1.0,stimuli/15.png,unstructured,85,2,new,24069.0,0,-1,new,24069.0
266,1.0649912916123867,old,1.0,stimuli/153.png,unstructured,86,2,nonboundary,24069.0,1,1,nonboundary,24069.0
267,0.6851836312562227,new,1.0,stimuli/192.png,unstructured,87,2,new,24069.0,0,-1,new,24069.0
268,0.9300185032188892,new,1.0,stimuli/109.png,unstructured,88,2,new,24069.0,0,-1,new,24069.0
269,0.6228498378768563,old,1.0,stimuli/227.png,unstructured,89,2,nonboundary,24069.0,1,1,nonboundary,24069.0
270,7.211169972084463,new,0.0,stimuli/211.png,structured,0,0,new,24070.0,1,1,new,24070.0
271,2.2008801959455013,old,1.0,stimuli/253.png,structured,1,0,boundary,24070.0,1,1,boundary,24070.0
272,4.41770986141637,new,1.0,stimuli/114.png,structured,2,0,new,24070.0,0,-1,new,24070.0
273,1.0582848861813545,new,1.0,stimuli/36.png,structured,3,0,new,24070.0,0,-1,new,24070.0
274,1.669864167459309,old,0.0,stimuli/285.png,structured,4,0,nonboundary,24070.0,0,-1,nonboundary,24070.0
275,1.8692939719185233,old,1.0,stimuli/41.png,structured,5,0,boundary,24070.0,1,1,boundary,24070.0
276,1.1647589723579586,old,1.0,stimuli/64.png,structured,6,0,nonboundary,24070.0,1,1,nonboundary,24070.0
277,2.616677231620997,old,1.0,stimuli/186.png,structured,7,0,nonboundary,24070.0,1,1,nonboundary,24070.0
278,1.0203459202311933,new,1.0,stimuli/87.png,structured,8,0,new,24070.0,0,-1,new,24070.0
279,1.1532470039092004,old,1.0,stimuli/205.png,structured,9,0,boundary,24070.0,1,1,boundary,24070.0
280,2.2460702103562653,new,1.0,stimuli/144.png,structured,10,0,new,24070.0,0,-1,new,24070.0
281,1.301154879387468,old,1.0,stimuli/117.png,structured,11,0,nonboundary,24070.0,1,1,nonboundary,24070.0
282,2.2770331129431725,new,1.0,stimuli/265.png,structured,12,0,new,24070.0,0,-1,new,24070.0
283,0.9228192823939025,new,1.0,stimuli/148.png,structured,13,0,new,24070.0,0,-1,new,24070.0
284,1.3536545019596815,new,1.0,stimuli/159.png,structured,14,0,new,24070.0,0,-1,new,24070.0
285,0.7231748616322875,new,1.0,stimuli/99.png,structured,15,0,new,24070.0,0,-1,new,24070.0
286,1.1338316882029176,old,1.0,stimuli/204.png,structured,16,0,nonboundary,24070.0,1,1,nonboundary,24070.0
287,0.9945503938943148,new,1.0,stimuli/236.png,structured,17,0,new,24070.0,0,-1,new,24070.0
288,1.325772284064442,old,0.0,stimuli/263.png,structured,18,0,nonboundary,24070.0,0,-1,nonboundary,24070.0
289,1.258296356536448,old,1.0,stimuli/90.png,structured,19,0,boundary,24070.0,1,1,boundary,24070.0
290,0.9151341724209487,new,1.0,stimuli/22.png,structured,20,0,new,24070.0,0,-1,new,24070.0
291,0.774630384054035,new,1.0,stimuli/111.png,structured,21,0,new,24070.0,0,-1,new,24070.0
292,0.8085221406072378,new,1.0,stimuli/180.png,structured,22,0,new,24070.0,0,-1,new,24070.0
293,2.0684246430173516,old,0.0,stimuli/2.png,structured,23,0,nonboundary,24070.0,0,-1,nonboundary,24070.0
294,1.254861299879849,old,1.0,stimuli/171.png,structured,24,0,nonboundary,24070.0,1,1,nonboundary,24070.0
295,0.6846747561357915,old,1.0,stimuli/233.png,structured,25,0,boundary,24070.0,1,1,boundary,24070.0
296,1.331558755133301,old,1.0,stimuli/223.png,structured,26,0,boundary,24070.0,1,1,boundary,24070.0
297,1.0234157387167215,old,1.0,stimuli/183.png,structured,27,0,nonboundary,24070.0,1,1,nonboundary,24070.0
298,0.9422554257325828,new,1.0,stimuli/45.png,structured,28,0,new,24070.0,0,-1,new,24070.0
299,0.9418186484836042,new,1.0,stimuli/271.png,structured,29,0,new,24070.0,0,-1,new,24070.0
300,6.024501192383468,new,1.0,stimuli/61.png,structured,30,1,new,24070.0,0,-1,new,24070.0
301,1.9268969781696796,new,1.0,stimuli/88.png,structured,31,1,new,24070.0,0,-1,new,24070.0
302,1.1450164509005845,old,1.0,stimuli/186.png,structured,32,1,nonboundary,24070.0,1,1,nonboundary,24070.0
303,0.9568755468353629,new,1.0,stimuli/27.png,structured,33,1,new,24070.0,0,-1,new,24070.0
304,1.0817027376033366,new,1.0,stimuli/98.png,structured,34,1,new,24070.0,0,-1,new,24070.0
305,0.7532940926030278,old,1.0,stimuli/223.png,structured,35,1,boundary,24070.0,1,1,boundary,24070.0
306,1.0244417279027402,new,1.0,stimuli/73.png,structured,36,1,new,24070.0,0,-1,new,24070.0
307,0.7529662833549082,new,1.0,stimuli/146.png,structured,37,1,new,24070.0,0,-1,new,24070.0
308,0.6018446073867381,new,1.0,stimuli/34.png,structured,38,1,new,24070.0,0,-1,new,24070.0
309,1.3070276798680425,new,1.0,stimuli/177.png,structured,39,1,new,24070.0,0,-1,new,24070.0
310,0.9055869481526315,old,1.0,stimuli/233.png,structured,40,1,boundary,24070.0,1,1,boundary,24070.0
311,0.7591119562275708,new,1.0,stimuli/65.png,structured,41,1,new,24070.0,0,-1,new,24070.0
312,1.2526490385644138,new,1.0,stimuli/47.png,structured,42,1,new,24070.0,0,-1,new,24070.0
313,0.8761843098327518,old,1.0,stimuli/41.png,structured,43,1,boundary,24070.0,1,1,boundary,24070.0
314,3.256408584769815,new,1.0,stimuli/226.png,structured,44,1,new,24070.0,0,-1,new,24070.0
315,2.999802288133651,old,1.0,stimuli/263.png,structured,45,1,nonboundary,24070.0,1,1,nonboundary,24070.0
316,1.2365733948536217,old,1.0,stimuli/2.png,structured,46,1,nonboundary,24070.0,1,1,nonboundary,24070.0
317,1.3236732170917094,old,1.0,stimuli/205.png,structured,47,1,boundary,24070.0,1,1,boundary,24070.0
318,0.6735059916973114,new,1.0,stimuli/290.png,structured,48,1,new,24070.0,0,-1,new,24070.0
319,0.8377575539052486,new,1.0,stimuli/102.png,structured,49,1,new,24070.0,0,-1,new,24070.0
320,1.0719532733783126,old,1.0,stimuli/171.png,structured,50,1,nonboundary,24070.0,1,1,nonboundary,24070.0
321,1.1471746806055307,old,1.0,stimuli/64.png,structured,51,1,nonboundary,24070.0,1,1,nonboundary,24070.0
322,1.2326505482196808,old,1.0,stimuli/285.png,structured,52,1,nonboundary,24070.0,1,1,nonboundary,24070.0
323,0.8724718522280455,old,1.0,stimuli/253.png,structured,53,1,boundary,24070.0,1,1,boundary,24070.0
324,0.9837317760102451,old,1.0,stimuli/204.png,structured,54,1,nonboundary,24070.0,1,1,nonboundary,24070.0
325,0.7295931056141853,new,1.0,stimuli/241.png,structured,55,1,new,24070.0,0,-1,new,24070.0
326,0.9471266865730286,new,1.0,stimuli/231.png,structured,56,1,new,24070.0,0,-1,new,24070.0
327,2.4916547439061105,old,1.0,stimuli/90.png,structured,57,1,boundary,24070.0,1,1,boundary,24070.0
328,1.2761130733415484,old,1.0,stimuli/183.png,structured,58,1,nonboundary,24070.0,1,1,nonboundary,24070.0
329,0.7845636755228043,old,1.0,stimuli/117.png,structured,59,1,nonboundary,24070.0,1,1,nonboundary,24070.0
330,0.7860264419578016,new,1.0,stimuli/85.png,structured,60,2,new,24070.0,0,-1,new,24070.0
331,0.8589242054149508,old,1.0,stimuli/263.png,structured,61,2,nonboundary,24070.0,1,1,nonboundary,24070.0
332,0.7184611670672894,old,1.0,stimuli/205.png,structured,62,2,boundary,24070.0,1,1,boundary,24070.0
333,1.0360246310010552,new,0.0,stimuli/143.png,structured,63,2,new,24070.0,1,1,new,24070.0
334,1.1632168190553784,old,1.0,stimuli/2.png,structured,64,2,nonboundary,24070.0,1,1,nonboundary,24070.0
335,1.0697062998078763,new,1.0,stimuli/94.png,structured,65,2,new,24070.0,0,-1,new,24070.0
336,0.6895614112727344,old,1.0,stimuli/117.png,structured,66,2,nonboundary,24070.0,1,1,nonboundary,24070.0
337,0.6233991365879774,old,1.0,stimuli/223.png,structured,67,2,boundary,24070.0,1,1,boundary,24070.0
338,0.5574007667601109,old,1.0,stimuli/186.png,structured,68,2,nonboundary,24070.0,1,1,nonboundary,24070.0
339,0.4891871172003448,old,1.0,stimuli/233.png,structured,69,2,boundary,24070.0,1,1,boundary,24070.0
340,0.5831193216145039,new,1.0,stimuli/297.png,structured,70,2,new,24070.0,0,-1,new,24070.0
341,0.6423779772594571,new,1.0,stimuli/270.png,structured,71,2,new,24070.0,0,-1,new,24070.0
342,0.7018615109845996,new,1.0,stimuli/179.png,structured,72,2,new,24070.0,0,-1,new,24070.0
343,0.7097805547527969,new,1.0,stimuli/259.png,structured,73,2,new,24070.0,0,-1,new,24070.0
344,0.5513208974152803,old,1.0,stimuli/41.png,structured,74,2,boundary,24070.0,1,1,boundary,24070.0
345,0.6429010834544897,new,1.0,stimuli/127.png,structured,75,2,new,24070.0,0,-1,new,24070.0
346,0.7074360833503306,old,1.0,stimuli/285.png,structured,76,2,nonboundary,24070.0,1,1,nonboundary,24070.0
347,0.7909704488702118,old,1.0,stimuli/204.png,structured,77,2,nonboundary,24070.0,1,1,nonboundary,24070.0
348,1.5932288928888738,new,1.0,stimuli/288.png,structured,78,2,new,24070.0,0,-1,new,24070.0
349,0.8830486880615354,new,1.0,stimuli/249.png,structured,79,2,new,24070.0,0,-1,new,24070.0
350,0.7128681819885969,old,1.0,stimuli/183.png,structured,80,2,nonboundary,24070.0,1,1,nonboundary,24070.0
351,0.7397663677111268,new,1.0,stimuli/97.png,structured,81,2,new,24070.0,0,-1,new,24070.0
352,1.123297412879765,old,1.0,stimuli/171.png,structured,82,2,nonboundary,24070.0,1,1,nonboundary,24070.0
353,0.6898258323781192,new,1.0,stimuli/199.png,structured,83,2,new,24070.0,0,-1,new,24070.0
354,3.96377524221316,new,1.0,stimuli/188.png,structured,84,2,new,24070.0,0,-1,new,24070.0
355,1.028679706621915,new,1.0,stimuli/273.png,structured,85,2,new,24070.0,0,-1,new,24070.0
356,0.7101989192888141,old,1.0,stimuli/64.png,structured,86,2,nonboundary,24070.0,1,1,nonboundary,24070.0
357,0.5857740952633321,old,1.0,stimuli/90.png,structured,87,2,boundary,24070.0,1,1,boundary,24070.0
358,0.7233131094835699,new,1.0,stimuli/74.png,structured,88,2,new,24070.0,0,-1,new,24070.0
359,0.9815653958357871,old,1.0,stimuli/253.png,structured,89,2,boundary,24070.0,1,1,boundary,24070.0
360,4.033984319103183,new,0.0,stimuli/177.png,unstructured,0,0,new,24071.0,1,1,new,24071.0
361,1.2492047565465327,old,1.0,stimuli/262.png,unstructured,1,0,boundary,24071.0,1,1,boundary,24071.0
362,2.0501578412659,new,0.0,stimuli/125.png,unstructured,2,0,new,24071.0,1,1,new,24071.0
363,0.9469268194807228,new,0.0,stimuli/285.png,unstructured,3,0,new,24071.0,1,1,new,24071.0
364,0.7101422895502765,old,1.0,stimuli/17.png,unstructured,4,0,nonboundary,24071.0,1,1,nonboundary,24071.0
365,0.6883306739619002,old,1.0,stimuli/129.png,unstructured,5,0,nonboundary,24071.0,1,1,nonboundary,24071.0
366,2.0415597336832434,new,1.0,stimuli/132.png,unstructured,6,0,new,24071.0,0,-1,new,24071.0
367,0.9040434409107547,new,1.0,stimuli/106.png,unstructured,7,0,new,24071.0,0,-1,new,24071.0
368,2.170662957447348,old,1.0,stimuli/27.png,unstructured,8,0,boundary,24071.0,1,1,boundary,24071.0
369,0.7338770389615092,new,0.0,stimuli/78.png,unstructured,9,0,new,24071.0,1,1,new,24071.0
370,0.7137039056106005,old,1.0,stimuli/114.png,unstructured,10,0,boundary,24071.0,1,1,boundary,24071.0
371,1.927218546596123,old,1.0,stimuli/232.png,unstructured,11,0,boundary,24071.0,1,1,boundary,24071.0
372,0.8597784607554786,old,1.0,stimuli/157.png,unstructured,12,0,nonboundary,24071.0,1,1,nonboundary,24071.0
373,1.3346264906285796,new,1.0,stimuli/68.png,unstructured,13,0,new,24071.0,0,-1,new,24071.0
374,0.781820453965338,new,0.0,stimuli/31.png,unstructured,14,0,new,24071.0,1,1,new,24071.0
375,1.1126691986282822,new,0.0,stimuli/2.png,unstructured,15,0,new,24071.0,1,1,new,24071.0
376,4.443642912316136,new,0.0,stimuli/107.png,unstructured,16,0,new,24071.0,1,1,new,24071.0
377,1.0806997780164238,old,1.0,stimuli/104.png,unstructured,17,0,nonboundary,24071.0,1,1,nonboundary,24071.0
378,3.3242748931224924,new,1.0,stimuli/286.png,unstructured,18,0,new,24071.0,0,-1,new,24071.0
379,2.0216235583939124,old,1.0,stimuli/12.png,unstructured,19,0,boundary,24071.0,1,1,boundary,24071.0
380,0.7377924319589511,old,1.0,stimuli/217.png,unstructured,20,0,nonboundary,24071.0,1,1,nonboundary,24071.0
381,7.49031007400481,new,1.0,stimuli/93.png,unstructured,21,0,new,24071.0,0,-1,new,24071.0
382,0.8683617773640435,old,1.0,stimuli/133.png,unstructured,22,0,nonboundary,24071.0,1,1,nonboundary,24071.0
383,1.3448938699439168,old,1.0,stimuli/199.png,unstructured,23,0,nonboundary,24071.0,1,1,nonboundary,24071.0
384,1.1187265721091535,new,1.0,stimuli/98.png,unstructured,24,0,new,24071.0,0,-1,new,24071.0
385,1.928972338384483,new,1.0,stimuli/6.png,unstructured,25,0,new,24071.0,0,-1,new,24071.0
386,1.575889679545071,old,1.0,stimuli/184.png,unstructured,26,0,boundary,24071.0,1,1,boundary,24071.0
387,0.8377824102644809,new,1.0,stimuli/34.png,unstructured,27,0,new,24071.0,0,-1,new,24071.0
388,1.1096195328282192,old,1.0,stimuli/105.png,unstructured,28,0,nonboundary,24071.0,1,1,nonboundary,24071.0
389,2.379554651590297,old,0.0,stimuli/67.png,unstructured,29,0,nonboundary,24071.0,0,-1,nonboundary,24071.0
390,2.980034846434137,old,1.0,stimuli/232.png,unstructured,30,1,boundary,24071.0,1,1,boundary,24071.0
391,0.7178885554603767,old,1.0,stimuli/129.png,unstructured,31,1,nonboundary,24071.0,1,1,nonboundary,24071.0
392,1.106408977007959,old,1.0,stimuli/27.png,unstructured,32,1,boundary,24071.0,1,1,boundary,24071.0
393,0.6762569796992466,old,1.0,stimuli/199.png,unstructured,33,1,nonboundary,24071.0,1,1,nonboundary,24071.0
394,2.4417837722576223,new,1.0,stimuli/8.png,unstructured,34,1,new,24071.0,0,-1,new,24071.0
395,2.026071126048919,new,1.0,stimuli/111.png,unstructured,35,1,new,24071.0,0,-1,new,24071.0
396,1.0419542613672093,new,1.0,stimuli/41.png,unstructured,36,1,new,24071.0,0,-1,new,24071.0
397,0.7734861697827,old,1.0,stimuli/17.png,unstructured,37,1,nonboundary,24071.0,1,1,nonboundary,24071.0
398,0.786276775499573,old,1.0,stimuli/105.png,unstructured,38,1,nonboundary,24071.0,1,1,nonboundary,24071.0
399,2.309555116458796,new,1.0,stimuli/5.png,unstructured,39,1,new,24071.0,0,-1,new,24071.0
400,1.897471400530776,new,0.0,stimuli/291.png,unstructured,40,1,new,24071.0,1,1,new,24071.0
401,1.7404019896057434,new,1.0,stimuli/259.png,unstructured,41,1,new,24071.0,0,-1,new,24071.0
402,0.9502707963110879,new,1.0,stimuli/102.png,unstructured,42,1,new,24071.0,0,-1,new,24071.0
403,1.9204702214628924,new,1.0,stimuli/265.png,unstructured,43,1,new,24071.0,0,-1,new,24071.0
404,0.7526884933758993,old,1.0,stimuli/114.png,unstructured,44,1,boundary,24071.0,1,1,boundary,24071.0
405,0.7821561194432434,old,1.0,stimuli/133.png,unstructured,45,1,nonboundary,24071.0,1,1,nonboundary,24071.0
406,3.301099787437124,new,0.0,stimuli/299.png,unstructured,46,1,new,24071.0,1,1,new,24071.0
407,0.8411037478072103,old,1.0,stimuli/104.png,unstructured,47,1,nonboundary,24071.0,1,1,nonboundary,24071.0
408,2.283966056711506,new,1.0,stimuli/188.png,unstructured,48,1,new,24071.0,0,-1,new,24071.0
409,1.6008780429547187,old,1.0,stimuli/12.png,unstructured,49,1,boundary,24071.0,1,1,boundary,24071.0
410,1.9364659495768137,old,1.0,stimuli/67.png,unstructured,50,1,nonboundary,24071.0,1,1,nonboundary,24071.0
411,1.285363656730624,old,1.0,stimuli/262.png,unstructured,51,1,boundary,24071.0,1,1,boundary,24071.0
412,0.8002192692365497,old,1.0,stimuli/157.png,unstructured,52,1,nonboundary,24071.0,1,1,nonboundary,24071.0
413,0.6947089218883775,old,1.0,stimuli/184.png,unstructured,53,1,boundary,24071.0,1,1,boundary,24071.0
414,0.898191934247734,old,1.0,stimuli/217.png,unstructured,54,1,nonboundary,24071.0,1,1,nonboundary,24071.0
415,2.385765670478577,new,1.0,stimuli/283.png,unstructured,55,1,new,24071.0,0,-1,new,24071.0
416,1.2699912642419804,new,0.0,stimuli/14.png,unstructured,56,1,new,24071.0,1,1,new,24071.0
417,1.0788714274240192,new,1.0,stimuli/101.png,unstructured,57,1,new,24071.0,0,-1,new,24071.0
418,2.63313996346551,new,0.0,stimuli/171.png,unstructured,58,1,new,24071.0,1,1,new,24071.0
419,0.9430742128461134,new,1.0,stimuli/252.png,unstructured,59,1,new,24071.0,0,-1,new,24071.0
420,2.5202009042259306,new,0.0,stimuli/226.png,unstructured,60,2,new,24071.0,1,1,new,24071.0
421,1.2667927827278618,old,1.0,stimuli/67.png,unstructured,61,2,nonboundary,24071.0,1,1,nonboundary,24071.0
422,1.5363394109299406,new,1.0,stimuli/115.png,unstructured,62,2,new,24071.0,0,-1,new,24071.0
423,1.1998187647841405,old,1.0,stimuli/184.png,unstructured,63,2,boundary,24071.0,1,1,boundary,24071.0
424,2.1421187132655177,old,0.0,stimuli/27.png,unstructured,64,2,boundary,24071.0,0,-1,boundary,24071.0
425,2.1684198547154665,new,1.0,stimuli/52.png,unstructured,65,2,new,24071.0,0,-1,new,24071.0
426,1.1456489361589774,new,1.0,stimuli/95.png,unstructured,66,2,new,24071.0,0,-1,new,24071.0
427,1.7182055057783145,new,0.0,stimuli/278.png,unstructured,67,2,new,24071.0,1,1,new,24071.0
428,1.1080444406543393,old,1.0,stimuli/105.png,unstructured,68,2,nonboundary,24071.0,1,1,nonboundary,24071.0
429,0.9605756059172563,old,1.0,stimuli/114.png,unstructured,69,2,boundary,24071.0,1,1,boundary,24071.0
430,1.5776588660664856,new,1.0,stimuli/241.png,unstructured,70,2,new,24071.0,0,-1,new,24071.0
431,1.8290342795371544,old,1.0,stimuli/12.png,unstructured,71,2,boundary,24071.0,1,1,boundary,24071.0
432,2.02026821844629,new,1.0,stimuli/88.png,unstructured,72,2,new,24071.0,0,-1,new,24071.0
433,0.8508335189835634,new,1.0,stimuli/192.png,unstructured,73,2,new,24071.0,0,-1,new,24071.0
434,1.0907241620589048,new,0.0,stimuli/51.png,unstructured,74,2,new,24071.0,1,1,new,24071.0
435,0.8355610413127579,old,1.0,stimuli/199.png,unstructured,75,2,nonboundary,24071.0,1,1,nonboundary,24071.0
436,1.214756784378551,old,1.0,stimuli/262.png,unstructured,76,2,boundary,24071.0,1,1,boundary,24071.0
437,1.4702872656635009,old,1.0,stimuli/217.png,unstructured,77,2,nonboundary,24071.0,1,1,nonboundary,24071.0
438,1.61081277532503,new,1.0,stimuli/92.png,unstructured,78,2,new,24071.0,0,-1,new,24071.0
439,0.9297481120447628,new,1.0,stimuli/77.png,unstructured,79,2,new,24071.0,0,-1,new,24071.0
440,0.8245734301453922,old,1.0,stimuli/133.png,unstructured,80,2,nonboundary,24071.0,1,1,nonboundary,24071.0
441,2.145785979460925,new,0.0,stimuli/176.png,unstructured,81,2,new,24071.0,1,1,new,24071.0
442,0.690976756362943,new,1.0,stimuli/276.png,unstructured,82,2,new,24071.0,0,-1,new,24071.0
443,1.0695389006577898,old,1.0,stimuli/157.png,unstructured,83,2,nonboundary,24071.0,1,1,nonboundary,24071.0
444,1.012394870602293,new,1.0,stimuli/20.png,unstructured,84,2,new,24071.0,0,-1,new,24071.0
445,0.8018713350757025,old,1.0,stimuli/17.png,unstructured,85,2,nonboundary,24071.0,1,1,nonboundary,24071.0
446,0.8297098364855628,old,1.0,stimuli/104.png,unstructured,86,2,nonboundary,24071.0,1,1,nonboundary,24071.0
447,1.135211913002422,old,1.0,stimuli/129.png,unstructured,87,2,nonboundary,24071.0,1,1,nonboundary,24071.0
448,4.072213961393572,new,1.0,stimuli/18.png,unstructured,88,2,new,24071.0,0,-1,new,24071.0
449,1.1878392500511836,old,0.0,stimuli/232.png,unstructured,89,2,boundary,24071.0,0,-1,boundary,24071.0
450,7.304119254928082,new,1.0,stimuli/16.png,structured,0,0,new,24072.0,0,-1,new,24072.0
451,1.668286227621138,old,1.0,stimuli/35.png,structured,1,0,boundary,24072.0,1,1,boundary,24072.0
452,1.8996598678641021,new,0.0,stimuli/288.png,structured,2,0,new,24072.0,1,1,new,24072.0
453,1.8198764682747424,new,1.0,stimuli/193.png,structured,3,0,new,24072.0,0,-1,new,24072.0
454,1.1021150485612452,new,0.0,stimuli/27.png,structured,4,0,new,24072.0,1,1,new,24072.0
455,0.9808411654084921,old,1.0,stimuli/114.png,structured,5,0,nonboundary,24072.0,1,1,nonboundary,24072.0
456,1.215466404799372,old,1.0,stimuli/108.png,structured,6,0,boundary,24072.0,1,1,boundary,24072.0
457,1.0019877254962921,new,1.0,stimuli/245.png,structured,7,0,new,24072.0,0,-1,new,24072.0
458,0.8566797226667404,new,1.0,stimuli/71.png,structured,8,0,new,24072.0,0,-1,new,24072.0
459,1.5905629987828434,old,1.0,stimuli/106.png,structured,9,0,boundary,24072.0,1,1,boundary,24072.0
460,3.130975853651762,new,0.0,stimuli/59.png,structured,10,0,new,24072.0,1,1,new,24072.0
461,0.9324451102875173,new,1.0,stimuli/280.png,structured,11,0,new,24072.0,0,-1,new,24072.0
462,1.0931948856450617,new,1.0,stimuli/178.png,structured,12,0,new,24072.0,0,-1,new,24072.0
463,2.039863476064056,old,0.0,stimuli/65.png,structured,13,0,nonboundary,24072.0,0,-1,nonboundary,24072.0
464,5.883134430274367,old,1.0,stimuli/191.png,structured,14,0,nonboundary,24072.0,1,1,nonboundary,24072.0
465,3.3209740184247494,old,1.0,stimuli/256.png,structured,15,0,boundary,24072.0,1,1,boundary,24072.0
466,1.5342552834190428,new,0.0,stimuli/33.png,structured,16,0,new,24072.0,1,1,new,24072.0
467,1.1427410142496228,new,0.0,stimuli/282.png,structured,17,0,new,24072.0,1,1,new,24072.0
468,4.246461637318134,old,1.0,stimuli/173.png,structured,18,0,nonboundary,24072.0,1,1,nonboundary,24072.0
469,0.9812091286294162,new,1.0,stimuli/145.png,structured,19,0,new,24072.0,0,-1,new,24072.0
470,1.4718609335832298,new,0.0,stimuli/143.png,structured,20,0,new,24072.0,1,1,new,24072.0
471,2.5464056129567325,old,1.0,stimuli/170.png,structured,21,0,nonboundary,24072.0,1,1,nonboundary,24072.0
472,1.213163239415735,old,1.0,stimuli/70.png,structured,22,0,nonboundary,24072.0,1,1,nonboundary,24072.0
473,0.8757009110413492,old,1.0,stimuli/224.png,structured,23,0,boundary,24072.0,1,1,boundary,24072.0
474,0.9385848725214601,old,1.0,stimuli/123.png,structured,24,0,nonboundary,24072.0,1,1,nonboundary,24072.0
475,0.7853262708522379,old,1.0,stimuli/259.png,structured,25,0,boundary,24072.0,1,1,boundary,24072.0
476,1.382160339038819,old,1.0,stimuli/97.png,structured,26,0,nonboundary,24072.0,1,1,nonboundary,24072.0
477,0.9706024937331676,new,0.0,stimuli/230.png,structured,27,0,new,24072.0,1,1,new,24072.0
478,0.525308255571872,old,1.0,stimuli/169.png,structured,28,0,nonboundary,24072.0,1,1,nonboundary,24072.0
479,0.842342141084373,new,0.0,stimuli/84.png,structured,29,0,new,24072.0,1,1,new,24072.0
480,5.387589832767844,old,1.0,stimuli/97.png,structured,30,1,nonboundary,24072.0,1,1,nonboundary,24072.0
481,1.4515505162999034,old,1.0,stimuli/123.png,structured,31,1,nonboundary,24072.0,1,1,nonboundary,24072.0
482,0.9620110527612269,new,1.0,stimuli/47.png,structured,32,1,new,24072.0,0,-1,new,24072.0
483,0.8607538808137178,old,1.0,stimuli/169.png,structured,33,1,nonboundary,24072.0,1,1,nonboundary,24072.0
484,2.297567156609148,new,0.0,stimuli/85.png,structured,34,1,new,24072.0,1,1,new,24072.0
485,5.672688201535493,old,1.0,stimuli/259.png,structured,35,1,boundary,24072.0,1,1,boundary,24072.0
486,0.9024879620410502,new,1.0,stimuli/163.png,structured,36,1,new,24072.0,0,-1,new,24072.0
487,0.9292632406577468,old,0.0,stimuli/108.png,structured,37,1,boundary,24072.0,0,-1,boundary,24072.0
488,0.9540676982142031,old,1.0,stimuli/65.png,structured,38,1,nonboundary,24072.0,1,1,nonboundary,24072.0
489,0.896761441603303,old,1.0,stimuli/114.png,structured,39,1,nonboundary,24072.0,1,1,nonboundary,24072.0
490,0.8666699668392539,new,1.0,stimuli/109.png,structured,40,1,new,24072.0,0,-1,new,24072.0
491,1.7954306164756417,old,1.0,stimuli/256.png,structured,41,1,boundary,24072.0,1,1,boundary,24072.0
492,1.9156981096602976,old,1.0,stimuli/35.png,structured,42,1,boundary,24072.0,1,1,boundary,24072.0
493,1.1238263817504048,new,0.0,stimuli/115.png,structured,43,1,new,24072.0,1,1,new,24072.0
494,0.9765282394364476,new,0.0,stimuli/45.png,structured,44,1,new,24072.0,1,1,new,24072.0
495,1.2913145003840327,new,0.0,stimuli/76.png,structured,45,1,new,24072.0,1,1,new,24072.0
496,9.31926641613245,new,1.0,stimuli/94.png,structured,46,1,new,24072.0,0,-1,new,24072.0
497,1.0347660249099135,new,1.0,stimuli/286.png,structured,47,1,new,24072.0,0,-1,new,24072.0
498,1.0074766846373677,new,1.0,stimuli/146.png,structured,48,1,new,24072.0,0,-1,new,24072.0
499,0.9201839999295771,new,1.0,stimuli/158.png,structured,49,1,new,24072.0,0,-1,new,24072.0
500,2.6499882880598307,old,1.0,stimuli/70.png,structured,50,1,nonboundary,24072.0,1,1,nonboundary,24072.0
501,0.9356674286536872,new,1.0,stimuli/292.png,structured,51,1,new,24072.0,0,-1,new,24072.0
502,1.808501910418272,new,0.0,stimuli/250.png,structured,52,1,new,24072.0,1,1,new,24072.0
503,0.8987449412234128,old,1.0,stimuli/173.png,structured,53,1,nonboundary,24072.0,1,1,nonboundary,24072.0
504,0.9935390627942979,new,0.0,stimuli/240.png,structured,54,1,new,24072.0,1,1,new,24072.0
505,0.8821844873018563,new,1.0,stimuli/142.png,structured,55,1,new,24072.0,0,-1,new,24072.0
506,5.010229314677417,old,1.0,stimuli/191.png,structured,56,1,nonboundary,24072.0,1,1,nonboundary,24072.0
507,1.40051985764876,old,1.0,stimuli/106.png,structured,57,1,boundary,24072.0,1,1,boundary,24072.0
508,0.92695675464347,old,1.0,stimuli/170.png,structured,58,1,nonboundary,24072.0,1,1,nonboundary,24072.0
509,1.0478186034597456,old,1.0,stimuli/224.png,structured,59,1,boundary,24072.0,1,1,boundary,24072.0
510,5.1349144778214395,new,0.0,stimuli/18.png,structured,60,2,new,24072.0,1,1,new,24072.0
511,1.871127180289477,old,1.0,stimuli/97.png,structured,61,2,nonboundary,24072.0,1,1,nonboundary,24072.0
512,0.9493321725167334,old,1.0,stimuli/123.png,structured,62,2,nonboundary,24072.0,1,1,nonboundary,24072.0
513,1.0201139086857438,new,1.0,stimuli/157.png,structured,63,2,new,24072.0,0,-1,new,24072.0
514,1.2547940858639777,new,1.0,stimuli/147.png,structured,64,2,new,24072.0,0,-1,new,24072.0
515,3.5664485855959356,old,1.0,stimuli/70.png,structured,65,2,nonboundary,24072.0,1,1,nonboundary,24072.0
516,0.9455637955106795,old,1.0,stimuli/173.png,structured,66,2,nonboundary,24072.0,1,1,nonboundary,24072.0
517,1.6143894409760833,new,1.0,stimuli/159.png,structured,67,2,new,24072.0,0,-1,new,24072.0
518,0.7667032317258418,new,1.0,stimuli/112.png,structured,68,2,new,24072.0,0,-1,new,24072.0
519,2.1875383355654776,old,1.0,stimuli/191.png,structured,69,2,nonboundary,24072.0,1,1,nonboundary,24072.0
520,1.1065508304163814,old,1.0,stimuli/114.png,structured,70,2,nonboundary,24072.0,1,1,nonboundary,24072.0
521,0.8390971831977367,old,1.0,stimuli/106.png,structured,71,2,boundary,24072.0,1,1,boundary,24072.0
522,1.179840692318976,old,1.0,stimuli/35.png,structured,72,2,boundary,24072.0,1,1,boundary,24072.0
523,0.7804458541795611,new,0.0,stimuli/103.png,structured,73,2,new,24072.0,1,1,new,24072.0
524,2.781315804924816,new,0.0,stimuli/11.png,structured,74,2,new,24072.0,1,1,new,24072.0
525,0.6447767345234752,old,0.0,stimuli/259.png,structured,75,2,boundary,24072.0,0,-1,boundary,24072.0
526,0.9108098447322845,old,1.0,stimuli/65.png,structured,76,2,nonboundary,24072.0,1,1,nonboundary,24072.0
527,0.7394585656002164,old,1.0,stimuli/169.png,structured,77,2,nonboundary,24072.0,1,1,nonboundary,24072.0
528,1.1963622062467039,new,1.0,stimuli/3.png,structured,78,2,new,24072.0,0,-1,new,24072.0
529,0.677009881939739,new,1.0,stimuli/197.png,structured,79,2,new,24072.0,0,-1,new,24072.0
530,0.7059041932225227,new,1.0,stimuli/66.png,structured,80,2,new,24072.0,0,-1,new,24072.0
531,2.004927203990519,old,1.0,stimuli/256.png,structured,81,2,boundary,24072.0,1,1,boundary,24072.0
532,1.8790729502215981,old,1.0,stimuli/108.png,structured,82,2,boundary,24072.0,1,1,boundary,24072.0
533,1.436241861898452,new,0.0,stimuli/199.png,structured,83,2,new,24072.0,1,1,new,24072.0
534,5.562889998778701,new,1.0,stimuli/221.png,structured,84,2,new,24072.0,0,-1,new,24072.0
535,1.1307757226750255,new,1.0,stimuli/90.png,structured,85,2,new,24072.0,0,-1,new,24072.0
536,24.51835831068456,new,0.0,stimuli/28.png,structured,86,2,new,24072.0,1,1,new,24072.0
537,0.8204575418494642,new,0.0,stimuli/164.png,structured,87,2,new,24072.0,1,1,new,24072.0
538,0.8492664285004139,old,1.0,stimuli/170.png,structured,88,2,nonboundary,24072.0,1,1,nonboundary,24072.0
539,0.6540153562091291,old,1.0,stimuli/224.png,structured,89,2,boundary,24072.0,1,1,boundary,24072.0
540,4.286311639472842,old,1.0,stimuli/143.png,unstructured,0,0,nonboundary,241067.0,1,1,nonboundary,241067.0
541,1.7242837846279144,old,1.0,stimuli/60.png,unstructured,1,0,nonboundary,241067.0,1,1,nonboundary,241067.0
542,1.1190553158521652,new,1.0,stimuli/146.png,unstructured,2,0,new,241067.0,0,-1,new,241067.0
543,1.8016160260885954,old,1.0,stimuli/264.png,unstructured,3,0,nonboundary,241067.0,1,1,nonboundary,241067.0
544,0.9933312982320786,new,1.0,stimuli/261.png,unstructured,4,0,new,241067.0,0,-1,new,241067.0
545,1.015867181122303,old,1.0,stimuli/77.png,unstructured,5,0,nonboundary,241067.0,1,1,nonboundary,241067.0
546,1.6046893708407879,old,1.0,stimuli/46.png,unstructured,6,0,boundary,241067.0,1,1,boundary,241067.0
547,0.7264866624027491,new,1.0,stimuli/106.png,unstructured,7,0,new,241067.0,0,-1,new,241067.0
548,1.162381799891591,old,1.0,stimuli/156.png,unstructured,8,0,nonboundary,241067.0,1,1,nonboundary,241067.0
549,1.0456184055656195,new,1.0,stimuli/229.png,unstructured,9,0,new,241067.0,0,-1,new,241067.0
550,3.230761267244816,new,0.0,stimuli/237.png,unstructured,10,0,new,241067.0,1,1,new,241067.0
551,1.8467043917626143,new,1.0,stimuli/9.png,unstructured,11,0,new,241067.0,0,-1,new,241067.0
552,0.9678596556186676,old,1.0,stimuli/127.png,unstructured,12,0,boundary,241067.0,1,1,boundary,241067.0
553,1.1939917989075184,old,1.0,stimuli/10.png,unstructured,13,0,nonboundary,241067.0,1,1,nonboundary,241067.0
554,0.6978613249957561,new,1.0,stimuli/110.png,unstructured,14,0,new,241067.0,0,-1,new,241067.0
555,1.1814132407307625,new,0.0,stimuli/200.png,unstructured,15,0,new,241067.0,1,1,new,241067.0
556,1.1485783476382494,old,1.0,stimuli/286.png,unstructured,16,0,nonboundary,241067.0,1,1,nonboundary,241067.0
557,0.7664001658558846,new,1.0,stimuli/105.png,unstructured,17,0,new,241067.0,0,-1,new,241067.0
558,2.4156222008168697,old,0.0,stimuli/189.png,unstructured,18,0,boundary,241067.0,0,-1,boundary,241067.0
559,2.0423011109232903,old,1.0,stimuli/8.png,unstructured,19,0,nonboundary,241067.0,1,1,nonboundary,241067.0
560,1.4974220767617226,new,1.0,stimuli/186.png,unstructured,20,0,new,241067.0,0,-1,new,241067.0
561,6.180651983246207,new,1.0,stimuli/240.png,unstructured,21,0,new,241067.0,0,-1,new,241067.0
562,0.8779880944639444,old,1.0,stimuli/222.png,unstructured,22,0,boundary,241067.0,1,1,boundary,241067.0
563,0.912238348275423,new,1.0,stimuli/73.png,unstructured,23,0,new,241067.0,0,-1,new,241067.0
564,1.0277363993227482,new,1.0,stimuli/247.png,unstructured,24,0,new,241067.0,0,-1,new,241067.0
565,0.7922968100756407,old,1.0,stimuli/202.png,unstructured,25,0,nonboundary,241067.0,1,1,nonboundary,241067.0
566,3.293479898944497,new,1.0,stimuli/183.png,unstructured,26,0,new,241067.0,0,-1,new,241067.0
567,0.8347995541989803,new,1.0,stimuli/88.png,unstructured,27,0,new,241067.0,0,-1,new,241067.0
568,0.8222689889371395,old,1.0,stimuli/154.png,unstructured,28,0,boundary,241067.0,1,1,boundary,241067.0
569,2.0618465952575207,old,1.0,stimuli/228.png,unstructured,29,0,boundary,241067.0,1,1,boundary,241067.0
570,2.9014409873634577,new,1.0,stimuli/150.png,unstructured,30,1,new,241067.0,0,-1,new,241067.0
571,0.9673721734434366,old,1.0,stimuli/8.png,unstructured,31,1,nonboundary,241067.0,1,1,nonboundary,241067.0
572,1.031602755188942,old,1.0,stimuli/189.png,unstructured,32,1,boundary,241067.0,1,1,boundary,241067.0
573,0.7208077181130648,old,1.0,stimuli/154.png,unstructured,33,1,boundary,241067.0,1,1,boundary,241067.0
574,0.6320394054055214,new,0.0,stimuli/235.png,unstructured,34,1,new,241067.0,1,1,new,241067.0
575,0.678853128105402,old,1.0,stimuli/127.png,unstructured,35,1,boundary,241067.0,1,1,boundary,241067.0
576,1.211379986256361,new,0.0,stimuli/103.png,unstructured,36,1,new,241067.0,1,1,new,241067.0
577,0.558606119826436,old,1.0,stimuli/222.png,unstructured,37,1,boundary,241067.0,1,1,boundary,241067.0
578,1.1841283533722162,new,1.0,stimuli/263.png,unstructured,38,1,new,241067.0,0,-1,new,241067.0
579,0.913951026275754,new,1.0,stimuli/278.png,unstructured,39,1,new,241067.0,0,-1,new,241067.0
580,0.7824544925242662,old,1.0,stimuli/143.png,unstructured,40,1,nonboundary,241067.0,1,1,nonboundary,241067.0
581,1.598039384931326,new,1.0,stimuli/59.png,unstructured,41,1,new,241067.0,0,-1,new,241067.0
582,1.8161393851041794,old,1.0,stimuli/264.png,unstructured,42,1,nonboundary,241067.0,1,1,nonboundary,241067.0
583,7.6429858803749084,new,1.0,stimuli/51.png,unstructured,43,1,new,241067.0,0,-1,new,241067.0
584,1.0226019863039255,new,1.0,stimuli/163.png,unstructured,44,1,new,241067.0,0,-1,new,241067.0
585,0.8751356415450573,old,1.0,stimuli/10.png,unstructured,45,1,nonboundary,241067.0,1,1,nonboundary,241067.0
586,1.1360022015869617,old,1.0,stimuli/77.png,unstructured,46,1,nonboundary,241067.0,1,1,nonboundary,241067.0
587,0.755820132791996,old,1.0,stimuli/202.png,unstructured,47,1,nonboundary,241067.0,1,1,nonboundary,241067.0
588,0.8926584515720606,new,1.0,stimuli/94.png,unstructured,48,1,new,241067.0,0,-1,new,241067.0
589,0.9002218283712864,new,1.0,stimuli/36.png,unstructured,49,1,new,241067.0,0,-1,new,241067.0
590,4.293099269270897,new,1.0,stimuli/74.png,unstructured,50,1,new,241067.0,0,-1,new,241067.0
591,1.5476729273796082,old,1.0,stimuli/228.png,unstructured,51,1,boundary,241067.0,1,1,boundary,241067.0
592,2.053134996443987,old,1.0,stimuli/60.png,unstructured,52,1,nonboundary,241067.0,1,1,nonboundary,241067.0
593,1.1536010783165693,old,1.0,stimuli/46.png,unstructured,53,1,boundary,241067.0,1,1,boundary,241067.0
594,0.6703990027308464,old,1.0,stimuli/156.png,unstructured,54,1,nonboundary,241067.0,1,1,nonboundary,241067.0
595,0.7715955544263124,new,1.0,stimuli/54.png,unstructured,55,1,new,241067.0,0,-1,new,241067.0
596,0.6267724819481373,new,1.0,stimuli/195.png,unstructured,56,1,new,241067.0,0,-1,new,241067.0
597,1.2090919874608517,new,1.0,stimuli/124.png,unstructured,57,1,new,241067.0,0,-1,new,241067.0
598,1.3125249221920967,old,1.0,stimuli/286.png,unstructured,58,1,nonboundary,241067.0,1,1,nonboundary,241067.0
599,0.9666619282215834,new,1.0,stimuli/167.png,unstructured,59,1,new,241067.0,0,-1,new,241067.0
600,4.796783158555627,new,0.0,stimuli/220.png,unstructured,60,2,new,241067.0,1,1,new,241067.0
601,1.0086578726768494,new,1.0,stimuli/34.png,unstructured,61,2,new,241067.0,0,-1,new,241067.0
602,0.7762361448258162,new,1.0,stimuli/11.png,unstructured,62,2,new,241067.0,0,-1,new,241067.0
603,0.6800837554037571,old,1.0,stimuli/156.png,unstructured,63,2,nonboundary,241067.0,1,1,nonboundary,241067.0
604,0.9188608676195145,old,1.0,stimuli/202.png,unstructured,64,2,nonboundary,241067.0,1,1,nonboundary,241067.0
605,1.073442643508315,new,0.0,stimuli/140.png,unstructured,65,2,new,241067.0,1,1,new,241067.0
606,1.6693316716700792,new,0.0,stimuli/296.png,unstructured,66,2,new,241067.0,1,1,new,241067.0
607,0.6751241106539965,old,1.0,stimuli/60.png,unstructured,67,2,nonboundary,241067.0,1,1,nonboundary,241067.0
608,0.9362822566181421,new,1.0,stimuli/207.png,unstructured,68,2,new,241067.0,0,-1,new,241067.0
609,0.7891467362642288,old,1.0,stimuli/8.png,unstructured,69,2,nonboundary,241067.0,1,1,nonboundary,241067.0
610,0.9107128139585257,new,1.0,stimuli/84.png,unstructured,70,2,new,241067.0,0,-1,new,241067.0
611,0.6152020916342735,old,1.0,stimuli/127.png,unstructured,71,2,boundary,241067.0,1,1,boundary,241067.0
612,0.6940737515687943,old,1.0,stimuli/286.png,unstructured,72,2,nonboundary,241067.0,1,1,nonboundary,241067.0
613,3.445991611108184,new,1.0,stimuli/71.png,unstructured,73,2,new,241067.0,0,-1,new,241067.0
614,1.1892500892281532,old,1.0,stimuli/10.png,unstructured,74,2,nonboundary,241067.0,1,1,nonboundary,241067.0
615,0.8271226845681667,old,1.0,stimuli/154.png,unstructured,75,2,boundary,241067.0,1,1,boundary,241067.0
616,0.7192852031439543,old,1.0,stimuli/222.png,unstructured,76,2,boundary,241067.0,1,1,boundary,241067.0
617,0.9458136707544327,new,1.0,stimuli/270.png,unstructured,77,2,new,241067.0,0,-1,new,241067.0
618,1.1490229684859514,old,1.0,stimuli/189.png,unstructured,78,2,boundary,241067.0,1,1,boundary,241067.0
619,0.8648514207452536,new,1.0,stimuli/187.png,unstructured,79,2,new,241067.0,0,-1,new,241067.0
620,1.1563569381833076,old,1.0,stimuli/264.png,unstructured,80,2,nonboundary,241067.0,1,1,nonboundary,241067.0
621,0.660877849906683,new,1.0,stimuli/212.png,unstructured,81,2,new,241067.0,0,-1,new,241067.0
622,0.6417516302317381,new,0.0,stimuli/268.png,unstructured,82,2,new,241067.0,1,1,new,241067.0
623,0.7759279608726501,new,1.0,stimuli/287.png,unstructured,83,2,new,241067.0,0,-1,new,241067.0
624,0.7014454547315836,new,1.0,stimuli/33.png,unstructured,84,2,new,241067.0,0,-1,new,241067.0
625,1.0750161707401276,old,1.0,stimuli/77.png,unstructured,85,2,nonboundary,241067.0,1,1,nonboundary,241067.0
626,0.7294867187738419,old,1.0,stimuli/228.png,unstructured,86,2,boundary,241067.0,1,1,boundary,241067.0
627,0.6443245708942413,old,1.0,stimuli/46.png,unstructured,87,2,boundary,241067.0,1,1,boundary,241067.0
628,0.6758582033216953,new,0.0,stimuli/242.png,unstructured,88,2,new,241067.0,1,1,new,241067.0
629,0.595454066991806,old,1.0,stimuli/143.png,unstructured,89,2,nonboundary,241067.0,1,1,nonboundary,241067.0
630,5.388295537762133,old,1.0,stimuli/11.png,structured,0,0,nonboundary,241068.0,1,1,nonboundary,241068.0
631,1.2463096417495763,old,1.0,stimuli/167.png,structured,1,0,nonboundary,241068.0,1,1,nonboundary,241068.0
632,1.078499840921154,old,1.0,stimuli/100.png,structured,2,0,nonboundary,241068.0,1,1,nonboundary,241068.0
633,3.436433348969558,new,0.0,stimuli/155.png,structured,3,0,new,241068.0,1,1,new,241068.0
634,1.429460743740492,old,1.0,stimuli/239.png,structured,4,0,nonboundary,241068.0,1,1,nonboundary,241068.0
635,6.74658221902655,new,1.0,stimuli/247.png,structured,5,0,new,241068.0,0,-1,new,241068.0
636,1.2369251954979745,new,1.0,stimuli/147.png,structured,6,0,new,241068.0,0,-1,new,241068.0
637,0.9064945234002835,old,1.0,stimuli/125.png,structured,7,0,boundary,241068.0,1,1,boundary,241068.0
638,2.2910111077503643,new,1.0,stimuli/16.png,structured,8,0,new,241068.0,0,-1,new,241068.0
639,3.6267608099681183,new,1.0,stimuli/170.png,structured,9,0,new,241068.0,0,-1,new,241068.0
640,8.798392126108865,old,1.0,stimuli/263.png,structured,10,0,boundary,241068.0,1,1,boundary,241068.0
641,2.791611200360421,new,1.0,stimuli/18.png,structured,11,0,new,241068.0,0,-1,new,241068.0
642,2.0685509212387387,new,1.0,stimuli/223.png,structured,12,0,new,241068.0,0,-1,new,241068.0
643,1.0714668642021934,old,1.0,stimuli/189.png,structured,13,0,nonboundary,241068.0,1,1,nonboundary,241068.0
644,0.9206265836196508,new,1.0,stimuli/106.png,structured,14,0,new,241068.0,0,-1,new,241068.0
645,0.8374814584060459,new,1.0,stimuli/35.png,structured,15,0,new,241068.0,0,-1,new,241068.0
646,0.9246476267062462,old,1.0,stimuli/262.png,structured,16,0,nonboundary,241068.0,1,1,nonboundary,241068.0
647,1.2275193173675234,new,1.0,stimuli/142.png,structured,17,0,new,241068.0,0,-1,new,241068.0
648,0.8793382198018662,old,1.0,stimuli/225.png,structured,18,0,nonboundary,241068.0,1,1,nonboundary,241068.0
649,1.864229952590449,old,1.0,stimuli/32.png,structured,19,0,nonboundary,241068.0,1,1,nonboundary,241068.0
650,1.6218625691328725,new,1.0,stimuli/91.png,structured,20,0,new,241068.0,0,-1,new,241068.0
651,1.9617157215207044,new,1.0,stimuli/211.png,structured,21,0,new,241068.0,0,-1,new,241068.0
652,0.8599164096349341,new,1.0,stimuli/172.png,structured,22,0,new,241068.0,0,-1,new,241068.0
653,1.1265205314380182,old,1.0,stimuli/230.png,structured,23,0,boundary,241068.0,1,1,boundary,241068.0
654,0.7736651712648381,old,1.0,stimuli/40.png,structured,24,0,boundary,241068.0,1,1,boundary,241068.0
655,1.08319553540764,new,1.0,stimuli/88.png,structured,25,0,new,241068.0,0,-1,new,241068.0
656,4.4165496969048945,old,1.0,stimuli/204.png,structured,26,0,boundary,241068.0,1,1,boundary,241068.0
657,1.0988009618383785,old,1.0,stimuli/25.png,structured,27,0,nonboundary,241068.0,1,1,nonboundary,241068.0
658,2.027032240186827,new,1.0,stimuli/148.png,structured,28,0,new,241068.0,0,-1,new,241068.0
659,1.1792640836119972,old,1.0,stimuli/195.png,structured,29,0,boundary,241068.0,1,1,boundary,241068.0
660,1.019963040573657,old,1.0,stimuli/195.png,structured,30,1,boundary,241068.0,1,1,boundary,241068.0
661,3.407603849527277,new,1.0,stimuli/60.png,structured,31,1,new,241068.0,0,-1,new,241068.0
662,0.885504563782888,old,1.0,stimuli/225.png,structured,32,1,nonboundary,241068.0,1,1,nonboundary,241068.0
663,1.0266111490445837,new,1.0,stimuli/153.png,structured,33,1,new,241068.0,0,-1,new,241068.0
664,0.7011828586023512,old,1.0,stimuli/125.png,structured,34,1,boundary,241068.0,1,1,boundary,241068.0
665,0.9036760803933248,old,1.0,stimuli/25.png,structured,35,1,nonboundary,241068.0,1,1,nonboundary,241068.0
666,1.0418827211360622,old,1.0,stimuli/189.png,structured,36,1,nonboundary,241068.0,1,1,nonboundary,241068.0
667,0.7060041257873308,old,1.0,stimuli/100.png,structured,37,1,nonboundary,241068.0,1,1,nonboundary,241068.0
668,0.8605364248364822,new,1.0,stimuli/260.png,structured,38,1,new,241068.0,0,-1,new,241068.0
669,1.0420478371611352,new,1.0,stimuli/33.png,structured,39,1,new,241068.0,0,-1,new,241068.0
670,0.8949185920646414,old,1.0,stimuli/32.png,structured,40,1,nonboundary,241068.0,1,1,nonboundary,241068.0
671,0.8006986188811425,new,1.0,stimuli/152.png,structured,41,1,new,241068.0,0,-1,new,241068.0
672,1.050566858104503,new,0.0,stimuli/232.png,structured,42,1,new,241068.0,1,1,new,241068.0
673,1.2440457108773444,new,1.0,stimuli/63.png,structured,43,1,new,241068.0,0,-1,new,241068.0
674,0.9179961978034044,new,1.0,stimuli/209.png,structured,44,1,new,241068.0,0,-1,new,241068.0
675,0.7597851620162146,new,1.0,stimuli/114.png,structured,45,1,new,241068.0,0,-1,new,241068.0
676,0.9113402410389426,old,1.0,stimuli/239.png,structured,46,1,nonboundary,241068.0,1,1,nonboundary,241068.0
677,0.7841550194971205,old,1.0,stimuli/263.png,structured,47,1,boundary,241068.0,1,1,boundary,241068.0
678,7.000932437661959,old,1.0,stimuli/11.png,structured,48,1,nonboundary,241068.0,1,1,nonboundary,241068.0
679,1.0973635166633358,new,1.0,stimuli/186.png,structured,49,1,new,241068.0,0,-1,new,241068.0
680,1.11694289641855,old,1.0,stimuli/204.png,structured,50,1,boundary,241068.0,1,1,boundary,241068.0
681,1.125752907943479,new,1.0,stimuli/95.png,structured,51,1,new,241068.0,0,-1,new,241068.0
682,1.7699535320643918,new,1.0,stimuli/278.png,structured,52,1,new,241068.0,0,-1,new,241068.0
683,0.9644680577466715,new,1.0,stimuli/132.png,structured,53,1,new,241068.0,0,-1,new,241068.0
684,0.7816550360989822,old,1.0,stimuli/262.png,structured,54,1,nonboundary,241068.0,1,1,nonboundary,241068.0
685,0.7958221117823996,old,1.0,stimuli/40.png,structured,55,1,boundary,241068.0,1,1,boundary,241068.0
686,1.467373435699301,new,1.0,stimuli/0.png,structured,56,1,new,241068.0,0,-1,new,241068.0
687,0.8318892472943844,new,0.0,stimuli/219.png,structured,57,1,new,241068.0,1,1,new,241068.0
688,0.7577035530434841,old,1.0,stimuli/230.png,structured,58,1,boundary,241068.0,1,1,boundary,241068.0
689,0.9162454245956724,old,1.0,stimuli/167.png,structured,59,1,nonboundary,241068.0,1,1,nonboundary,241068.0
690,1.1866176329426708,old,1.0,stimuli/263.png,structured,60,2,boundary,241068.0,1,1,boundary,241068.0
691,0.9064794305277246,new,1.0,stimuli/99.png,structured,61,2,new,241068.0,0,-1,new,241068.0
692,0.8566343135853458,old,1.0,stimuli/40.png,structured,62,2,boundary,241068.0,1,1,boundary,241068.0
693,1.936252234499534,old,1.0,stimuli/225.png,structured,63,2,nonboundary,241068.0,1,1,nonboundary,241068.0
694,1.2580905342938422,old,1.0,stimuli/195.png,structured,64,2,boundary,241068.0,1,1,boundary,241068.0
695,0.7982867778587206,new,1.0,stimuli/290.png,structured,65,2,new,241068.0,0,-1,new,241068.0
696,0.8931285773883246,new,1.0,stimuli/261.png,structured,66,2,new,241068.0,0,-1,new,241068.0
697,2.105035827460597,new,1.0,stimuli/140.png,structured,67,2,new,241068.0,0,-1,new,241068.0
698,1.1360051943629514,old,1.0,stimuli/239.png,structured,68,2,nonboundary,241068.0,1,1,nonboundary,241068.0
699,0.9954247466357629,old,1.0,stimuli/204.png,structured,69,2,boundary,241068.0,1,1,boundary,241068.0
700,1.2045929422106383,new,1.0,stimuli/164.png,structured,70,2,new,241068.0,0,-1,new,241068.0
701,0.9344767089810375,new,1.0,stimuli/46.png,structured,71,2,new,241068.0,0,-1,new,241068.0
702,0.691974093385852,new,1.0,stimuli/68.png,structured,72,2,new,241068.0,0,-1,new,241068.0
703,0.988490477303003,new,1.0,stimuli/163.png,structured,73,2,new,241068.0,0,-1,new,241068.0
704,0.8736512254508852,old,1.0,stimuli/189.png,structured,74,2,nonboundary,241068.0,1,1,nonboundary,241068.0
705,1.027825823422063,old,1.0,stimuli/125.png,structured,75,2,boundary,241068.0,1,1,boundary,241068.0
706,1.0253551201963091,new,1.0,stimuli/281.png,structured,76,2,new,241068.0,0,-1,new,241068.0
707,0.9108575709774414,old,1.0,stimuli/100.png,structured,77,2,nonboundary,241068.0,1,1,nonboundary,241068.0
708,0.7267157728365419,new,1.0,stimuli/80.png,structured,78,2,new,241068.0,0,-1,new,241068.0
709,0.8262091956648874,old,1.0,stimuli/262.png,structured,79,2,nonboundary,241068.0,1,1,nonboundary,241068.0
710,0.9210648806365498,old,1.0,stimuli/11.png,structured,80,2,nonboundary,241068.0,1,1,nonboundary,241068.0
711,4.394149459282744,new,0.0,stimuli/94.png,structured,81,2,new,241068.0,1,1,new,241068.0
712,0.8353530615286218,new,1.0,stimuli/24.png,structured,82,2,new,241068.0,0,-1,new,241068.0
713,0.896215673525603,new,1.0,stimuli/6.png,structured,83,2,new,241068.0,0,-1,new,241068.0
714,0.8303355870011728,old,1.0,stimuli/25.png,structured,84,2,nonboundary,241068.0,1,1,nonboundary,241068.0
715,1.122551407832816,old,1.0,stimuli/167.png,structured,85,2,nonboundary,241068.0,1,1,nonboundary,241068.0
716,0.8290191866635723,old,1.0,stimuli/230.png,structured,86,2,boundary,241068.0,1,1,boundary,241068.0
717,1.1025705576698783,new,1.0,stimuli/298.png,structured,87,2,new,241068.0,0,-1,new,241068.0
718,1.0123891353050567,old,1.0,stimuli/32.png,structured,88,2,nonboundary,241068.0,1,1,nonboundary,241068.0
719,1.8529546712743468,new,1.0,stimuli/240.png,structured,89,2,new,241068.0,0,-1,new,241068.0
720,3.1649796250276268,old,1.0,stimuli/290.png,unstructured,0,0,nonboundary,241069.0,1,1,nonboundary,241069.0
721,2.387739442754537,new,1.0,stimuli/105.png,unstructured,1,0,new,241069.0,0,-1,new,241069.0
722,4.575241329148412,new,0.0,stimuli/132.png,unstructured,2,0,new,241069.0,1,1,new,241069.0
723,1.0134269068948925,old,1.0,stimuli/170.png,unstructured,3,0,boundary,241069.0,1,1,boundary,241069.0
724,0.7889546919614077,old,1.0,stimuli/83.png,unstructured,4,0,boundary,241069.0,1,1,boundary,241069.0
725,1.0408331067301333,old,1.0,stimuli/175.png,unstructured,5,0,nonboundary,241069.0,1,1,nonboundary,241069.0
726,1.3830616679042578,new,1.0,stimuli/120.png,unstructured,6,0,new,241069.0,0,-1,new,241069.0
727,3.1599185005761683,old,1.0,stimuli/289.png,unstructured,7,0,nonboundary,241069.0,1,1,nonboundary,241069.0
728,0.9792417520657182,old,1.0,stimuli/81.png,unstructured,8,0,boundary,241069.0,1,1,boundary,241069.0
729,0.9067653720267117,old,1.0,stimuli/269.png,unstructured,9,0,boundary,241069.0,1,1,boundary,241069.0
730,0.8782924325205386,old,1.0,stimuli/138.png,unstructured,10,0,nonboundary,241069.0,1,1,nonboundary,241069.0
731,4.03399046137929,new,1.0,stimuli/219.png,unstructured,11,0,new,241069.0,0,-1,new,241069.0
732,0.8228555042296648,new,1.0,stimuli/90.png,unstructured,12,0,new,241069.0,0,-1,new,241069.0
733,2.304076489061117,old,0.0,stimuli/252.png,unstructured,13,0,boundary,241069.0,0,-1,boundary,241069.0
734,1.435848651919514,new,1.0,stimuli/63.png,unstructured,14,0,new,241069.0,0,-1,new,241069.0
735,1.2629614537581801,new,1.0,stimuli/286.png,unstructured,15,0,new,241069.0,0,-1,new,241069.0
736,1.5202650246210396,new,1.0,stimuli/113.png,unstructured,16,0,new,241069.0,0,-1,new,241069.0
737,0.7559881070628762,new,1.0,stimuli/66.png,unstructured,17,0,new,241069.0,0,-1,new,241069.0
738,0.9362467927858233,new,1.0,stimuli/152.png,unstructured,18,0,new,241069.0,0,-1,new,241069.0
739,0.769731956999749,new,1.0,stimuli/127.png,unstructured,19,0,new,241069.0,0,-1,new,241069.0
740,2.7232871502637863,old,0.0,stimuli/188.png,unstructured,20,0,nonboundary,241069.0,0,-1,nonboundary,241069.0
741,0.7809994267299771,old,0.0,stimuli/240.png,unstructured,21,0,nonboundary,241069.0,0,-1,nonboundary,241069.0
742,0.8782350807450712,old,1.0,stimuli/21.png,unstructured,22,0,boundary,241069.0,1,1,boundary,241069.0
743,1.2617498263716698,new,1.0,stimuli/139.png,unstructured,23,0,new,241069.0,0,-1,new,241069.0
744,1.7326200609095395,new,1.0,stimuli/35.png,unstructured,24,0,new,241069.0,0,-1,new,241069.0
745,1.3774762293323874,old,1.0,stimuli/92.png,unstructured,25,0,nonboundary,241069.0,1,1,nonboundary,241069.0
746,2.3646503062918782,old,1.0,stimuli/156.png,unstructured,26,0,nonboundary,241069.0,1,1,nonboundary,241069.0
747,1.8630465758033097,old,1.0,stimuli/173.png,unstructured,27,0,nonboundary,241069.0,1,1,nonboundary,241069.0
748,1.0391985876485705,new,1.0,stimuli/8.png,unstructured,28,0,new,241069.0,0,-1,new,241069.0
749,1.014694376848638,new,1.0,stimuli/55.png,unstructured,29,0,new,241069.0,0,-1,new,241069.0
750,2.7744812699966133,new,1.0,stimuli/230.png,unstructured,30,1,new,241069.0,0,-1,new,241069.0
751,0.9104953361675143,new,1.0,stimuli/181.png,unstructured,31,1,new,241069.0,0,-1,new,241069.0
752,0.6593787921592593,old,1.0,stimuli/138.png,unstructured,32,1,nonboundary,241069.0,1,1,nonboundary,241069.0
753,2.4776193061843514,new,1.0,stimuli/199.png,unstructured,33,1,new,241069.0,0,-1,new,241069.0
754,1.157052129972726,new,1.0,stimuli/162.png,unstructured,34,1,new,241069.0,0,-1,new,241069.0
755,0.816951613407582,new,1.0,stimuli/74.png,unstructured,35,1,new,241069.0,0,-1,new,241069.0
756,1.1787400767207146,old,1.0,stimuli/290.png,unstructured,36,1,nonboundary,241069.0,1,1,nonboundary,241069.0
757,2.1893154033459723,old,1.0,stimuli/156.png,unstructured,37,1,nonboundary,241069.0,1,1,nonboundary,241069.0
758,0.9604071960784495,old,1.0,stimuli/81.png,unstructured,38,1,boundary,241069.0,1,1,boundary,241069.0
759,1.0123004014603794,old,1.0,stimuli/92.png,unstructured,39,1,nonboundary,241069.0,1,1,nonboundary,241069.0
760,2.2174910199828446,new,1.0,stimuli/158.png,unstructured,40,1,new,241069.0,0,-1,new,241069.0
761,2.2779190437868237,new,1.0,stimuli/65.png,unstructured,41,1,new,241069.0,0,-1,new,241069.0
762,1.391327538061887,old,1.0,stimuli/188.png,unstructured,42,1,nonboundary,241069.0,1,1,nonboundary,241069.0
763,1.3125249780714512,new,1.0,stimuli/229.png,unstructured,43,1,new,241069.0,0,-1,new,241069.0
764,3.07805789494887,new,1.0,stimuli/145.png,unstructured,44,1,new,241069.0,0,-1,new,241069.0
765,1.2580642336979508,new,1.0,stimuli/103.png,unstructured,45,1,new,241069.0,0,-1,new,241069.0
766,1.6276184008456767,old,1.0,stimuli/83.png,unstructured,46,1,boundary,241069.0,1,1,boundary,241069.0
767,2.187781701795757,old,1.0,stimuli/170.png,unstructured,47,1,boundary,241069.0,1,1,boundary,241069.0
768,1.2778918775729835,old,1.0,stimuli/240.png,unstructured,48,1,nonboundary,241069.0,1,1,nonboundary,241069.0
769,1.5797385978512466,new,1.0,stimuli/86.png,unstructured,49,1,new,241069.0,0,-1,new,241069.0
770,1.7912559993565083,old,1.0,stimuli/173.png,unstructured,50,1,nonboundary,241069.0,1,1,nonboundary,241069.0
771,1.008387515321374,old,1.0,stimuli/269.png,unstructured,51,1,boundary,241069.0,1,1,boundary,241069.0
772,0.7988795316778123,new,1.0,stimuli/22.png,unstructured,52,1,new,241069.0,0,-1,new,241069.0
773,1.3354550395160913,new,1.0,stimuli/46.png,unstructured,53,1,new,241069.0,0,-1,new,241069.0
774,1.1115874308161438,old,1.0,stimuli/175.png,unstructured,54,1,nonboundary,241069.0,1,1,nonboundary,241069.0
775,1.2798357931897044,old,1.0,stimuli/21.png,unstructured,55,1,boundary,241069.0,1,1,boundary,241069.0
776,3.9700036221183836,new,1.0,stimuli/238.png,unstructured,56,1,new,241069.0,0,-1,new,241069.0
777,0.889307857491076,new,1.0,stimuli/196.png,unstructured,57,1,new,241069.0,0,-1,new,241069.0
778,0.8865432096645236,old,1.0,stimuli/289.png,unstructured,58,1,nonboundary,241069.0,1,1,nonboundary,241069.0
779,2.5834217751398683,old,1.0,stimuli/252.png,unstructured,59,1,boundary,241069.0,1,1,boundary,241069.0
780,3.5358299375511706,old,1.0,stimuli/188.png,unstructured,60,2,nonboundary,241069.0,1,1,nonboundary,241069.0
781,1.1951610371470451,old,1.0,stimuli/290.png,unstructured,61,2,nonboundary,241069.0,1,1,nonboundary,241069.0
782,1.236297805327922,new,1.0,stimuli/195.png,unstructured,62,2,new,241069.0,0,-1,new,241069.0
783,1.0661224303767085,new,1.0,stimuli/137.png,unstructured,63,2,new,241069.0,0,-1,new,241069.0
784,1.7377068428322673,new,0.0,stimuli/84.png,unstructured,64,2,new,241069.0,1,1,new,241069.0
785,2.8061755560338497,old,1.0,stimuli/21.png,unstructured,65,2,boundary,241069.0,1,1,boundary,241069.0
786,0.9586072629317641,new,1.0,stimuli/191.png,unstructured,66,2,new,241069.0,0,-1,new,241069.0
787,3.795203296467662,new,1.0,stimuli/202.png,unstructured,67,2,new,241069.0,0,-1,new,241069.0
788,1.301468804012984,new,1.0,stimuli/27.png,unstructured,68,2,new,241069.0,0,-1,new,241069.0
789,0.9869226356968284,new,1.0,stimuli/154.png,unstructured,69,2,new,241069.0,0,-1,new,241069.0
790,1.0421458538621664,old,1.0,stimuli/83.png,unstructured,70,2,boundary,241069.0,1,1,boundary,241069.0
791,1.1827006549574435,old,1.0,stimuli/252.png,unstructured,71,2,boundary,241069.0,1,1,boundary,241069.0
792,0.7752322740852833,old,0.0,stimuli/138.png,unstructured,72,2,nonboundary,241069.0,0,-1,nonboundary,241069.0
793,6.251251773443073,old,1.0,stimuli/170.png,unstructured,73,2,boundary,241069.0,1,1,boundary,241069.0
794,1.4673020616173744,old,1.0,stimuli/81.png,unstructured,74,2,boundary,241069.0,1,1,boundary,241069.0
795,2.681138881482184,old,1.0,stimuli/156.png,unstructured,75,2,nonboundary,241069.0,1,1,nonboundary,241069.0
796,1.741883546113968,old,1.0,stimuli/92.png,unstructured,76,2,nonboundary,241069.0,1,1,nonboundary,241069.0
797,1.2400081497617066,new,1.0,stimuli/119.png,unstructured,77,2,new,241069.0,0,-1,new,241069.0
798,2.2765576988458633,old,1.0,stimuli/269.png,unstructured,78,2,boundary,241069.0,1,1,boundary,241069.0
799,1.2340058558620512,old,1.0,stimuli/289.png,unstructured,79,2,nonboundary,241069.0,1,1,nonboundary,241069.0
800,1.5561474841088057,old,1.0,stimuli/173.png,unstructured,80,2,nonboundary,241069.0,1,1,nonboundary,241069.0
801,2.8876781668514013,new,1.0,stimuli/166.png,unstructured,81,2,new,241069.0,0,-1,new,241069.0
802,1.9623806937597692,new,1.0,stimuli/68.png,unstructured,82,2,new,241069.0,0,-1,new,241069.0
803,1.32220562081784,new,1.0,stimuli/281.png,unstructured,83,2,new,241069.0,0,-1,new,241069.0
804,1.5503588998690248,new,1.0,stimuli/285.png,unstructured,84,2,new,241069.0,0,-1,new,241069.0
805,2.8179051587358117,new,1.0,stimuli/221.png,unstructured,85,2,new,241069.0,0,-1,new,241069.0
806,1.0158806485123932,new,1.0,stimuli/1.png,unstructured,86,2,new,241069.0,0,-1,new,241069.0
807,1.3324516285210848,new,1.0,stimuli/87.png,unstructured,87,2,new,241069.0,0,-1,new,241069.0
808,2.406648253556341,old,1.0,stimuli/240.png,unstructured,88,2,nonboundary,241069.0,1,1,nonboundary,241069.0
809,2.943786410614848,old,1.0,stimuli/175.png,unstructured,89,2,nonboundary,241069.0,1,1,nonboundary,241069.0
810,5.854474359191954,new,1.0,stimuli/149.png,structured,0,0,new,241070.0,0,-1,new,241070.0
811,3.80021202377975,old,1.0,stimuli/203.png,structured,1,0,nonboundary,241070.0,1,1,nonboundary,241070.0
812,1.0992238665930927,old,1.0,stimuli/175.png,structured,2,0,boundary,241070.0,1,1,boundary,241070.0
813,0.8718126965686679,old,1.0,stimuli/177.png,structured,3,0,boundary,241070.0,1,1,boundary,241070.0
814,3.5816760403104126,new,1.0,stimuli/130.png,structured,4,0,new,241070.0,0,-1,new,241070.0
815,1.824918981641531,old,1.0,stimuli/80.png,structured,5,0,nonboundary,241070.0,1,1,nonboundary,241070.0
816,0.9031366514973342,new,1.0,stimuli/225.png,structured,6,0,new,241070.0,0,-1,new,241070.0
817,2.401912623550743,new,1.0,stimuli/151.png,structured,7,0,new,241070.0,0,-1,new,241070.0
818,1.3397567397914827,old,1.0,stimuli/216.png,structured,8,0,nonboundary,241070.0,1,1,nonboundary,241070.0
819,3.239377970341593,old,0.0,stimuli/161.png,structured,9,0,nonboundary,241070.0,0,-1,nonboundary,241070.0
820,2.2067979904823005,new,1.0,stimuli/71.png,structured,10,0,new,241070.0,0,-1,new,241070.0
821,4.586871896870434,new,1.0,stimuli/94.png,structured,11,0,new,241070.0,0,-1,new,241070.0
822,1.3194176466204226,new,1.0,stimuli/181.png,structured,12,0,new,241070.0,0,-1,new,241070.0
823,1.1869485080242157,old,1.0,stimuli/240.png,structured,13,0,nonboundary,241070.0,1,1,nonboundary,241070.0
824,0.9696148186922073,new,1.0,stimuli/243.png,structured,14,0,new,241070.0,0,-1,new,241070.0
825,1.3903750628232956,old,1.0,stimuli/219.png,structured,15,0,nonboundary,241070.0,1,1,nonboundary,241070.0
826,1.0549173639155924,old,1.0,stimuli/158.png,structured,16,0,nonboundary,241070.0,1,1,nonboundary,241070.0
827,0.9215843118727207,old,1.0,stimuli/226.png,structured,17,0,boundary,241070.0,1,1,boundary,241070.0
828,1.176240751054138,new,1.0,stimuli/215.png,structured,18,0,new,241070.0,0,-1,new,241070.0
829,1.7858599531464279,old,1.0,stimuli/73.png,structured,19,0,boundary,241070.0,1,1,boundary,241070.0
830,1.6181466490961611,old,1.0,stimuli/59.png,structured,20,0,nonboundary,241070.0,1,1,nonboundary,241070.0
831,1.3505109827965498,new,1.0,stimuli/123.png,structured,21,0,new,241070.0,0,-1,new,241070.0
832,4.907222280278802,old,1.0,stimuli/12.png,structured,22,0,boundary,241070.0,1,1,boundary,241070.0
833,1.8945717746391892,new,0.0,stimuli/92.png,structured,23,0,new,241070.0,1,1,new,241070.0
834,0.9466622518375516,new,1.0,stimuli/233.png,structured,24,0,new,241070.0,0,-1,new,241070.0
835,0.9833834012970328,new,1.0,stimuli/258.png,structured,25,0,new,241070.0,0,-1,new,241070.0
836,3.362257730215788,new,1.0,stimuli/111.png,structured,26,0,new,241070.0,0,-1,new,241070.0
837,1.3275469448417425,new,1.0,stimuli/232.png,structured,27,0,new,241070.0,0,-1,new,241070.0
838,1.3340474255383015,old,1.0,stimuli/274.png,structured,28,0,nonboundary,241070.0,1,1,nonboundary,241070.0
839,2.889692263212055,old,0.0,stimuli/103.png,structured,29,0,boundary,241070.0,0,-1,boundary,241070.0
840,2.996393418405205,old,1.0,stimuli/12.png,structured,30,1,boundary,241070.0,1,1,boundary,241070.0
841,0.7998319868929684,new,1.0,stimuli/105.png,structured,31,1,new,241070.0,0,-1,new,241070.0
842,0.8486862601712346,new,1.0,stimuli/74.png,structured,32,1,new,241070.0,0,-1,new,241070.0
843,1.0574912945739925,new,1.0,stimuli/62.png,structured,33,1,new,241070.0,0,-1,new,241070.0
844,3.7924325773492455,new,0.0,stimuli/55.png,structured,34,1,new,241070.0,1,1,new,241070.0
845,1.1163478861562908,old,1.0,stimuli/103.png,structured,35,1,boundary,241070.0,1,1,boundary,241070.0
846,0.7509324350394309,new,1.0,stimuli/184.png,structured,36,1,new,241070.0,0,-1,new,241070.0
847,0.9078272003680468,new,1.0,stimuli/137.png,structured,37,1,new,241070.0,0,-1,new,241070.0
848,0.898609708994627,old,1.0,stimuli/274.png,structured,38,1,nonboundary,241070.0,1,1,nonboundary,241070.0
849,1.0273958956822753,old,1.0,stimuli/216.png,structured,39,1,nonboundary,241070.0,1,1,nonboundary,241070.0
850,1.016056654509157,old,1.0,stimuli/175.png,structured,40,1,boundary,241070.0,1,1,boundary,241070.0
851,1.1026858589611948,old,1.0,stimuli/219.png,structured,41,1,nonboundary,241070.0,1,1,nonboundary,241070.0
852,1.378450522199273,new,1.0,stimuli/228.png,structured,42,1,new,241070.0,0,-1,new,241070.0
853,1.262876596301794,old,1.0,stimuli/161.png,structured,43,1,nonboundary,241070.0,1,1,nonboundary,241070.0
854,1.181490640155971,new,1.0,stimuli/221.png,structured,44,1,new,241070.0,0,-1,new,241070.0
855,0.832030420191586,old,1.0,stimuli/73.png,structured,45,1,boundary,241070.0,1,1,boundary,241070.0
856,1.8229544996283948,new,1.0,stimuli/256.png,structured,46,1,new,241070.0,0,-1,new,241070.0
857,1.1051816088147461,old,1.0,stimuli/240.png,structured,47,1,nonboundary,241070.0,1,1,nonboundary,241070.0
858,0.9657579981721938,new,1.0,stimuli/21.png,structured,48,1,new,241070.0,0,-1,new,241070.0
859,9.143878107890487,old,0.0,stimuli/158.png,structured,49,1,nonboundary,241070.0,0,-1,nonboundary,241070.0
860,1.4655485092662275,old,0.0,stimuli/80.png,structured,50,1,nonboundary,241070.0,0,-1,nonboundary,241070.0
861,1.142055497970432,old,1.0,stimuli/59.png,structured,51,1,nonboundary,241070.0,1,1,nonboundary,241070.0
862,1.31363618792966,old,1.0,stimuli/177.png,structured,52,1,boundary,241070.0,1,1,boundary,241070.0
863,1.1121276295743883,old,1.0,stimuli/226.png,structured,53,1,boundary,241070.0,1,1,boundary,241070.0
864,0.7787916804663837,new,1.0,stimuli/204.png,structured,54,1,new,241070.0,0,-1,new,241070.0
865,0.9896617154590786,new,1.0,stimuli/229.png,structured,55,1,new,241070.0,0,-1,new,241070.0
866,1.7484058956615627,old,1.0,stimuli/203.png,structured,56,1,nonboundary,241070.0,1,1,nonboundary,241070.0
867,1.6586298369802535,new,1.0,stimuli/194.png,structured,57,1,new,241070.0,0,-1,new,241070.0
868,1.0939084747806191,new,0.0,stimuli/42.png,structured,58,1,new,241070.0,1,1,new,241070.0
869,0.7026018826290965,new,1.0,stimuli/65.png,structured,59,1,new,241070.0,0,-1,new,241070.0
870,1.236376610584557,old,1.0,stimuli/73.png,structured,60,2,boundary,241070.0,1,1,boundary,241070.0
871,1.4793454664759338,new,1.0,stimuli/126.png,structured,61,2,new,241070.0,0,-1,new,241070.0
872,1.121795189101249,old,1.0,stimuli/59.png,structured,62,2,nonboundary,241070.0,1,1,nonboundary,241070.0
873,0.8834353811107576,new,1.0,stimuli/242.png,structured,63,2,new,241070.0,0,-1,new,241070.0
874,1.5003075916320086,new,1.0,stimuli/247.png,structured,64,2,new,241070.0,0,-1,new,241070.0
875,0.9766879216767848,old,1.0,stimuli/158.png,structured,65,2,nonboundary,241070.0,1,1,nonboundary,241070.0
876,1.4734816011041403,old,1.0,stimuli/240.png,structured,66,2,nonboundary,241070.0,1,1,nonboundary,241070.0
877,0.8399016307666898,old,1.0,stimuli/12.png,structured,67,2,boundary,241070.0,1,1,boundary,241070.0
878,0.8226840361021459,old,1.0,stimuli/175.png,structured,68,2,boundary,241070.0,1,1,boundary,241070.0
879,0.9886281583458185,old,1.0,stimuli/161.png,structured,69,2,nonboundary,241070.0,1,1,nonboundary,241070.0
880,0.9772916343063116,old,1.0,stimuli/203.png,structured,70,2,nonboundary,241070.0,1,1,nonboundary,241070.0
881,0.8098871298134327,old,1.0,stimuli/274.png,structured,71,2,nonboundary,241070.0,1,1,nonboundary,241070.0
882,0.6766865928657353,old,1.0,stimuli/226.png,structured,72,2,boundary,241070.0,1,1,boundary,241070.0
883,0.7215672270394862,new,1.0,stimuli/86.png,structured,73,2,new,241070.0,0,-1,new,241070.0
884,0.7284498577937484,old,1.0,stimuli/219.png,structured,74,2,nonboundary,241070.0,1,1,nonboundary,241070.0
885,0.7153423414565623,new,1.0,stimuli/276.png,structured,75,2,new,241070.0,0,-1,new,241070.0
886,0.8761920314282179,new,1.0,stimuli/254.png,structured,76,2,new,241070.0,0,-1,new,241070.0
887,1.28400202607736,new,1.0,stimuli/88.png,structured,77,2,new,241070.0,0,-1,new,241070.0
888,5.2087793769314885,new,0.0,stimuli/235.png,structured,78,2,new,241070.0,1,1,new,241070.0
889,1.2749384818598628,old,1.0,stimuli/177.png,structured,79,2,boundary,241070.0,1,1,boundary,241070.0
890,1.271456264425069,new,1.0,stimuli/8.png,structured,80,2,new,241070.0,0,-1,new,241070.0
891,1.1380640491843224,old,1.0,stimuli/216.png,structured,81,2,nonboundary,241070.0,1,1,nonboundary,241070.0
892,0.8856419525109231,new,1.0,stimuli/97.png,structured,82,2,new,241070.0,0,-1,new,241070.0
893,1.0544639751315117,old,1.0,stimuli/80.png,structured,83,2,nonboundary,241070.0,1,1,nonboundary,241070.0
894,1.271224136929959,new,1.0,stimuli/136.png,structured,84,2,new,241070.0,0,-1,new,241070.0
895,1.1257492080330849,new,1.0,stimuli/50.png,structured,85,2,new,241070.0,0,-1,new,241070.0
896,1.162389158271253,old,1.0,stimuli/103.png,structured,86,2,boundary,241070.0,1,1,boundary,241070.0
897,2.687084947247058,new,1.0,stimuli/227.png,structured,87,2,new,241070.0,0,-1,new,241070.0
898,1.0417757374234498,new,1.0,stimuli/150.png,structured,88,2,new,241070.0,0,-1,new,241070.0
899,0.8404781767167151,new,1.0,stimuli/64.png,structured,89,2,new,241070.0,0,-1,new,241070.0
900,9.311362940716208,new,0.0,stimuli/2.png,structured,0,0,new,241072.0,1,1,new,241072.0
901,3.731356831121957,old,1.0,stimuli/243.png,structured,1,0,nonboundary,241072.0,1,1,nonboundary,241072.0
902,1.32630911047454,new,1.0,stimuli/257.png,structured,2,0,new,241072.0,0,-1,new,241072.0
903,1.0955318456544774,old,1.0,stimuli/69.png,structured,3,0,nonboundary,241072.0,1,1,nonboundary,241072.0
904,1.367700105838594,new,1.0,stimuli/220.png,structured,4,0,new,241072.0,0,-1,new,241072.0
905,1.0712181336712092,new,0.0,stimuli/232.png,structured,5,0,new,241072.0,1,1,new,241072.0
906,1.325441270309966,new,1.0,stimuli/193.png,structured,6,0,new,241072.0,0,-1,new,241072.0
907,3.194404347712407,new,1.0,stimuli/88.png,structured,7,0,new,241072.0,0,-1,new,241072.0
908,1.3951027251168853,old,1.0,stimuli/131.png,structured,8,0,nonboundary,241072.0,1,1,nonboundary,241072.0
909,0.8939236699079629,old,1.0,stimuli/149.png,structured,9,0,boundary,241072.0,1,1,boundary,241072.0
910,1.0774433398473775,new,1.0,stimuli/65.png,structured,10,0,new,241072.0,0,-1,new,241072.0
911,0.8046215583017329,old,1.0,stimuli/225.png,structured,11,0,boundary,241072.0,1,1,boundary,241072.0
912,1.0947627128771273,old,1.0,stimuli/162.png,structured,12,0,boundary,241072.0,1,1,boundary,241072.0
913,0.7999204303632723,old,1.0,stimuli/197.png,structured,13,0,nonboundary,241072.0,1,1,nonboundary,241072.0
914,1.097112371266121,new,1.0,stimuli/36.png,structured,14,0,new,241072.0,0,-1,new,241072.0
915,0.7642801213078201,old,1.0,stimuli/283.png,structured,15,0,boundary,241072.0,1,1,boundary,241072.0
916,0.9601119528961135,old,0.0,stimuli/296.png,structured,16,0,boundary,241072.0,0,-1,boundary,241072.0
917,1.10566550209478,new,1.0,stimuli/111.png,structured,17,0,new,241072.0,0,-1,new,241072.0
918,1.6228653395810397,new,1.0,stimuli/113.png,structured,18,0,new,241072.0,0,-1,new,241072.0
919,0.8713631459831959,new,1.0,stimuli/78.png,structured,19,0,new,241072.0,0,-1,new,241072.0
920,0.7848610640794504,old,1.0,stimuli/249.png,structured,20,0,nonboundary,241072.0,1,1,nonboundary,241072.0
921,1.0093726737977704,old,1.0,stimuli/189.png,structured,21,0,nonboundary,241072.0,1,1,nonboundary,241072.0
922,1.2722684768523322,new,1.0,stimuli/56.png,structured,22,0,new,241072.0,0,-1,new,241072.0
923,0.7870984314795351,new,1.0,stimuli/114.png,structured,23,0,new,241072.0,0,-1,new,241072.0
924,0.8465860828000586,old,1.0,stimuli/233.png,structured,24,0,boundary,241072.0,1,1,boundary,241072.0
925,0.8674513752921484,new,1.0,stimuli/68.png,structured,25,0,new,241072.0,0,-1,new,241072.0
926,0.9466319047642173,new,1.0,stimuli/214.png,structured,26,0,new,241072.0,0,-1,new,241072.0
927,1.5121334620489506,old,1.0,stimuli/203.png,structured,27,0,nonboundary,241072.0,1,1,nonboundary,241072.0
928,1.1659941282705404,old,0.0,stimuli/27.png,structured,28,0,nonboundary,241072.0,0,-1,nonboundary,241072.0
929,1.6572254712082213,old,1.0,stimuli/60.png,structured,29,0,nonboundary,241072.0,1,1,nonboundary,241072.0
930,1.8277619503787719,new,1.0,stimuli/184.png,structured,30,1,new,241072.0,0,-1,new,241072.0
931,3.6503576105169486,new,1.0,stimuli/137.png,structured,31,1,new,241072.0,0,-1,new,241072.0
932,0.6306242834689328,old,1.0,stimuli/283.png,structured,32,1,boundary,241072.0,1,1,boundary,241072.0
933,1.008449291883153,new,1.0,stimuli/157.png,structured,33,1,new,241072.0,0,-1,new,241072.0
934,1.4793454040045617,old,1.0,stimuli/189.png,structured,34,1,nonboundary,241072.0,1,1,nonboundary,241072.0
935,0.7581949769810308,old,1.0,stimuli/296.png,structured,35,1,boundary,241072.0,1,1,boundary,241072.0
936,0.8373534708516672,new,1.0,stimuli/172.png,structured,36,1,new,241072.0,0,-1,new,241072.0
937,2.0335903951345244,new,0.0,stimuli/146.png,structured,37,1,new,241072.0,1,1,new,241072.0
938,1.0801497937354725,old,1.0,stimuli/27.png,structured,38,1,nonboundary,241072.0,1,1,nonboundary,241072.0
939,0.8489626064983895,old,1.0,stimuli/131.png,structured,39,1,nonboundary,241072.0,1,1,nonboundary,241072.0
940,1.1728124843502883,new,1.0,stimuli/217.png,structured,40,1,new,241072.0,0,-1,new,241072.0
941,1.0613362263393356,new,1.0,stimuli/94.png,structured,41,1,new,241072.0,0,-1,new,241072.0
942,0.7371995839203009,old,1.0,stimuli/249.png,structured,42,1,nonboundary,241072.0,1,1,nonboundary,241072.0
943,0.8623632661183365,old,1.0,stimuli/149.png,structured,43,1,boundary,241072.0,1,1,boundary,241072.0
944,0.7968611051182961,old,1.0,stimuli/69.png,structured,44,1,nonboundary,241072.0,1,1,nonboundary,241072.0
945,0.7896965185645968,new,1.0,stimuli/164.png,structured,45,1,new,241072.0,0,-1,new,241072.0
946,0.9508974523778306,new,1.0,stimuli/279.png,structured,46,1,new,241072.0,0,-1,new,241072.0
947,0.6613642387092113,old,1.0,stimuli/162.png,structured,47,1,boundary,241072.0,1,1,boundary,241072.0
948,0.9708804155525286,new,1.0,stimuli/85.png,structured,48,1,new,241072.0,0,-1,new,241072.0
949,1.2090574139001546,new,1.0,stimuli/202.png,structured,49,1,new,241072.0,0,-1,new,241072.0
950,0.7968906871537911,old,1.0,stimuli/197.png,structured,50,1,nonboundary,241072.0,1,1,nonboundary,241072.0
951,1.0440675653517246,new,1.0,stimuli/67.png,structured,51,1,new,241072.0,0,-1,new,241072.0
952,2.538678806173266,new,1.0,stimuli/252.png,structured,52,1,new,241072.0,0,-1,new,241072.0
953,2.0682970591296908,new,1.0,stimuli/51.png,structured,53,1,new,241072.0,0,-1,new,241072.0
954,0.7057626398309367,old,1.0,stimuli/225.png,structured,54,1,boundary,241072.0,1,1,boundary,241072.0
955,0.7863468064460903,old,1.0,stimuli/233.png,structured,55,1,boundary,241072.0,1,1,boundary,241072.0
956,0.6948154775600415,old,1.0,stimuli/243.png,structured,56,1,nonboundary,241072.0,1,1,nonboundary,241072.0
957,1.586376811072114,new,1.0,stimuli/74.png,structured,57,1,new,241072.0,0,-1,new,241072.0
958,1.0995553036045749,old,1.0,stimuli/60.png,structured,58,1,nonboundary,241072.0,1,1,nonboundary,241072.0
959,0.5597149499808438,old,1.0,stimuli/203.png,structured,59,1,nonboundary,241072.0,1,1,nonboundary,241072.0
960,1.9816950624081073,old,1.0,stimuli/27.png,structured,60,2,nonboundary,241072.0,1,1,nonboundary,241072.0
961,0.8488098666275619,new,1.0,stimuli/32.png,structured,61,2,new,241072.0,0,-1,new,241072.0
962,0.945989250249113,old,1.0,stimuli/296.png,structured,62,2,boundary,241072.0,1,1,boundary,241072.0
963,0.7458161048270995,new,1.0,stimuli/73.png,structured,63,2,new,241072.0,0,-1,new,241072.0
964,1.098642788536381,new,1.0,stimuli/241.png,structured,64,2,new,241072.0,0,-1,new,241072.0
965,0.7608374370902311,old,1.0,stimuli/203.png,structured,65,2,nonboundary,241072.0,1,1,nonboundary,241072.0
966,1.5049667624698486,new,1.0,stimuli/70.png,structured,66,2,new,241072.0,0,-1,new,241072.0
967,0.7545814414334018,new,1.0,stimuli/14.png,structured,67,2,new,241072.0,0,-1,new,241072.0
968,0.6597432642010972,old,1.0,stimuli/189.png,structured,68,2,nonboundary,241072.0,1,1,nonboundary,241072.0
969,0.8069084303424461,new,1.0,stimuli/12.png,structured,69,2,new,241072.0,0,-1,new,241072.0
970,0.8527599732187809,old,1.0,stimuli/131.png,structured,70,2,nonboundary,241072.0,1,1,nonboundary,241072.0
971,1.1025953099888284,old,1.0,stimuli/283.png,structured,71,2,boundary,241072.0,1,1,boundary,241072.0
972,3.087506663505337,new,1.0,stimuli/194.png,structured,72,2,new,241072.0,0,-1,new,241072.0
973,0.9081022161844885,new,1.0,stimuli/150.png,structured,73,2,new,241072.0,0,-1,new,241072.0
974,0.896620766230626,old,0.0,stimuli/69.png,structured,74,2,nonboundary,241072.0,0,-1,nonboundary,241072.0
975,0.7254654792777728,old,1.0,stimuli/233.png,structured,75,2,boundary,241072.0,1,1,boundary,241072.0
976,0.850290175556438,new,1.0,stimuli/221.png,structured,76,2,new,241072.0,0,-1,new,241072.0
977,1.0641697622049833,old,1.0,stimuli/162.png,structured,77,2,boundary,241072.0,1,1,boundary,241072.0
978,1.1196876862086356,new,0.0,stimuli/215.png,structured,78,2,new,241072.0,1,1,new,241072.0
979,0.8901646390877431,new,1.0,stimuli/272.png,structured,79,2,new,241072.0,0,-1,new,241072.0
980,0.7530157068540575,old,1.0,stimuli/243.png,structured,80,2,nonboundary,241072.0,1,1,nonboundary,241072.0
981,0.536837475723587,old,1.0,stimuli/225.png,structured,81,2,boundary,241072.0,1,1,boundary,241072.0
982,0.9423225878126686,new,1.0,stimuli/34.png,structured,82,2,new,241072.0,0,-1,new,241072.0
983,0.9765323944302509,new,1.0,stimuli/238.png,structured,83,2,new,241072.0,0,-1,new,241072.0
984,1.298022652597865,new,1.0,stimuli/5.png,structured,84,2,new,241072.0,0,-1,new,241072.0
985,0.6502196616638685,old,1.0,stimuli/60.png,structured,85,2,nonboundary,241072.0,1,1,nonboundary,241072.0
986,0.6953558023815276,old,1.0,stimuli/149.png,structured,86,2,boundary,241072.0,1,1,boundary,241072.0
987,0.7228577327769017,old,1.0,stimuli/249.png,structured,87,2,nonboundary,241072.0,1,1,nonboundary,241072.0
988,1.3390577580139507,new,1.0,stimuli/266.png,structured,88,2,new,241072.0,0,-1,new,241072.0
989,0.7338676813815255,old,1.0,stimuli/197.png,structured,89,2,nonboundary,241072.0,1,1,nonboundary,241072.0
990,7.583373379893601,old,1.0,stimuli/177.png,unstructured,0,0,boundary,241073.0,1,1,boundary,241073.0
991,1.3853237954899669,new,1.0,stimuli/183.png,unstructured,1,0,new,241073.0,0,-1,new,241073.0
992,1.2098672674037516,new,1.0,stimuli/156.png,unstructured,2,0,new,241073.0,0,-1,new,241073.0
993,0.8964758850634098,old,1.0,stimuli/69.png,unstructured,3,0,nonboundary,241073.0,1,1,nonboundary,241073.0
994,1.7452991879545152,new,1.0,stimuli/275.png,unstructured,4,0,new,241073.0,0,-1,new,241073.0
995,0.7815382732078433,old,1.0,stimuli/110.png,unstructured,5,0,boundary,241073.0,1,1,boundary,241073.0
996,0.6383634908124804,old,1.0,stimuli/211.png,unstructured,6,0,nonboundary,241073.0,1,1,nonboundary,241073.0
997,0.8223420321010053,new,1.0,stimuli/176.png,unstructured,7,0,new,241073.0,0,-1,new,241073.0
998,0.739016346167773,new,1.0,stimuli/161.png,unstructured,8,0,new,241073.0,0,-1,new,241073.0
999,1.3739637262187898,new,1.0,stimuli/22.png,unstructured,9,0,new,241073.0,0,-1,new,241073.0
1000,1.0304195927456021,new,1.0,stimuli/186.png,unstructured,10,0,new,241073.0,0,-1,new,241073.0
1001,2.0631655934266746,new,0.0,stimuli/272.png,unstructured,11,0,new,241073.0,1,1,new,241073.0
1002,1.6732725957408547,old,1.0,stimuli/168.png,unstructured,12,0,boundary,241073.0,1,1,boundary,241073.0
1003,1.1056005856953561,new,1.0,stimuli/182.png,unstructured,13,0,new,241073.0,0,-1,new,241073.0
1004,0.8851825268939137,old,1.0,stimuli/216.png,unstructured,14,0,nonboundary,241073.0,1,1,nonboundary,241073.0
1005,0.9019648446701467,old,1.0,stimuli/104.png,unstructured,15,0,nonboundary,241073.0,1,1,nonboundary,241073.0
